Time;fr.hx Position;fr.hx Velocity;fr.hx Acceleration;fr.hy Position;fr.hy Velocity;fr.hy Acceleration;fr.kn Position;fr.kn Velocity;fr.kn Acceleration;fl.hx Position;fl.hx Velocity;fl.hx Acceleration;fl.hy Position;fl.hy Velocity;fl.hy Acceleration;fl.kn Position;fl.kn Velocity;fl.kn Acceleration;rr.hx Position;rr.hx Velocity;rr.hx Acceleration;rr.hy Position;rr.hy Velocity;rr.hy Acceleration;rr.kn Position;rr.kn Velocity;rr.kn Acceleration;rl.hx Position;rl.hx Velocity;rl.hx Acceleration;rl.hy Position;rl.hy Velocity;rl.hy Acceleration;rl.kn Position;rl.kn Velocity;rl.kn Acceleration;Body linear Position x;Body linear Velocity x;Body linear Acceleration x;Body linear Position y;Body linear Velocity y;Body linear Acceleration y;Body linear Position z;Body linear Velocity z;Body linear Acceleration z;Body angular Position x;Body angular Velocity x;Body angular Acceleration x;Body angular Position y;Body angular Velocity y;Body angular Acceleration y;Body angular Position z;Body angular Velocity z;Body angular Acceleration z;fr.hx Torque;fr.hy Torque;fr.kn Torque;fl.hx Torque;fl.hy Torque;fl.kn Torque;rr.hx Torque;rr.hy Torque;rr.kn Torque;rl.hx Torque;rl.hy Torque;rl.kn Torque;fr Foot;fl Foot;rr Foot;rl Foot
0,0;0,0449319;-0,222019;38,93299999999997;0,642489;-314,786;27078,999999999985;-0,963148;50,394;-61331,49999999996;-0,038513;-0,772753;17,92999999999998;0,665379;-164,671;15453,999999999984;-0,948898;299,505;-101225,7499999999;0,0836265;286,024;569,5;0,622324;-0,0202364;109,06374999999989;-0,914018;375,634;-111111,74999999988;-0,090227;-241,282;4102,499999999993;0,654963;0,231976;102,28322499999987;-0,914381;287,797;-45111,49999999996;0,0;0,373959;0,4294999999999902;0,0;-0,0105046;-0,2517450000000001;0,0;113,946;-1086,2499999999964;0,0;-0,0798248;-3,642074999999995;0,0;-0,786835;-51,62049999999997;0,0;-0,698835;-19,020249999999976;-0,420933;0,587763;-124,017;0,115996;0,669879;-118,492;-103,962;0,148106;-148,005;0,425947;0,414548;-135,709;0,0;0,0;0,0;0,0
0,001185929648241206;0,044981795618506126;-0,19496827312856221;74,40412498370029;0,6383481702965942;-259,3518308352728;9669,44819821887;-0,9638296234095459;342,99590791304803;49163,564077081886;-0,03967722473909381;-0,7471119076122963;23,19073711512148;0,6633049083023855;-190,6204851282714;37502,91232512672;-0,9464611935987899;84,38649582753055;-99914,0285770864;0,08871445121425847;287,9967954238551;-3499,9991995551177;0,6226672824148866;0,06418537431607053;120,45931051317062;-0,908866565424324;41,530785211929825;-80357,17161881426;-0,09431752001912988;-235,36302370988875;3383,6387889520724;0,655349090356884;0,32962334908618074;74,59611626801698;-0,9127423129681655;273,06432838439724;-66952,90365853265;0,00044322111462109706;0,3744823752696565;0,24948203214150722;-1,2471048116948656e-05;-0,01060049386420104;-0,3620579657080732;0,0013572112346497164;112,56460400540465;-1036,8850065450706;5,791762682195174e-05;-0,08471468339285737;-4,24083969480963;-0,0014707701729862752;-13,208152485031214;6750,260839461182;-0,0008902651524600521;-0,7060776702860455;-33,23412194158456;-0,40618605295147525;0,608590099826466;-115,5486681393923;0,09385495839384056;0,675958010135329;-111,45972825007327;-129,06260364323998;0,15070114257028122;-150,87674576311093;0,3874773963930467;0,40634940108911166;-185,96317913490117;0,0;0,0;0,0;0,0
0,002371859296482412;0,046076554405345804;-0,06317944500172284;104,86570355835434;0,631715852394106;-268,49273478859385;33109,21491228073;-0,9549271093526739;355,405518012247;6576,048395658511;-0,04187775308194395;-0,7162823441940074;17,2467773228673;0,6604120904261935;-106,71009001544243;35800,42014477203;-0,9473502092796683;4,6136951000692505;-60169,99524449173;0,09679562793370061;279,30323492355427;-5208,2960510886805;0,6252114745227426;0,23895639521232964;141,6018009497822;-0,9050378862977342;56,61760192001902;-35501,43563957721;-0,10174995712003308;-232,44444779511122;1810,99032691896;0,6575367178933974;0,4030726327336653;70,60733917931339;-0,9118721953444409;155,53515208674122;-71249,45140220471;0,0008871531744782451;0,374628130891;0,0063232582225956485;-2,4941054832766525e-05;-0,01123045337253376;-0,5175121898977292;0,0026975536776400566;111,37829357300967;-1092,227221323747;-0,0004285696318172758;-0,08992692420072357;-5,267348834299348;-0,0033027560167651245;5,6275431796648565;-4875,671220352297;-0,002339349849680883;-0,7534444607838493;-12,765935498717015;-0,40890054206875687;0,5956504812330023;-128,08015425997223;0,10376136290673908;0,6564944619707807;-124,59328179376689;-80,53140544379195;0,13282964768553793;-147,37819575959364;0,3913348262786443;0,3880070904762121;-104,96393791640021;0,0;0,0;0,0;0,0
0,003557788944723618;0,0475935872974411;0,10584187996842455;116,53334016114526;0,6244534451000476;-251,42840831336883;58744,372927972;-0,9524908474863665;225,48882738262398;-75516,33704145529;-0,044442333409184964;-0,6953990397832199;7,266267856400649;0,6571182727229363;-21,291609788423116;18121,581045069142;-0,9488298482918278;-2,587085005111264;-15723,561461353958;0,10617690412701851;268,87076252124143;-4662,932507092925;0,6285492224948515;0,4464705344797061;151,37591995836448;-0,9030451921777729;165,68328869550658;-7288,185518782346;-0,11038524442831468;-231,76082124195878;314,22574993294944;0,6604826380567437;0,47877288706345855;74,92626502559501;-0,9121395083624071;30,228381124725928;-58475,262017016255;0,0013314263649949506;0,37444696687184165;-0,2567821851907173;-3,7923755267026935e-05;-0,012079553278240604;-0,6013268575000004;0,00402255180730391;110,16023840044204;-1088,727530167705;-0,0011014048771925647;-0,0964679227620898;-6,604962516450971;-0,005273236406758171;10,188451575513852;-21673,834784306913;-0,004037091382881776;-0,7832312999789159;-8,628058447917795;-0,4204016664183832;0,5657015212983838;-123,72258528458059;0,12980686429381236;0,6241883578487156;-120,84840623813668;-16,800956227165646;0,10465776164690113;-138,79483514124496;0,41651140485841537;0,3645651604308067;-19,48344850344268;0,0;0,0;0,0;0,0
0,004743718592964824;0,0489424106811427;0,24757136549239334;97,36492586362264;0,6183275809511438;-131,42720568123974;50801,286867003844;-0,9686459594214548;86,12930960688934;-91625,73746785606;-0,046730629309868474;-0,6976173528840761;0,2221444450863865;0,6538314850557851;-32,42035933605394;-7095,357107381909;-0,9487584089159641;2,89677378852107;2410,8592374619525;0,11522466619531577;264,9613193085456;-2092,105453106036;0,631361831546633;0,6310677760930596;130,58616032428492;-0,9033124651251274;134,19904950333884;-21938,170705875425;-0,11817910192959993;-232,50028045702726;-213,14792540928306;0,6631861203665407;0,5795091569145786;72,64039897665651;-0,9138470792536213;-15,691032351626601;-30128,46126232196;0,0017756695228208367;0,373987260234378;-0,4987959802935157;-5,189873792529963e-05;-0,012842165145277841;-0,5087576375443599;0,005333611219366559;108,73507817969686;-907,1197573900268;-0,0016229592962242216;-0,10526297525178689;-8,111468099343337;-0,007157233591661165;-39,28475146715105;-31025,441083308135;-0,005685948550472163;-0,7521780411477978;-59,22428034145624;-0,43247126986668155;0,5346236377343834;-69,77590177941197;0,1569168560151597;0,5910679440622841;-68,26506315785845;8,10757784101654;0,07581698689288917;-126,89767798462603;0,4430993731576129;0,3408007095798344;-42,721762813692756;0,0;0,0;0,0;0,0
0,00592964824120603;0,049964892384691796;0,3376322388379419;58,781039597495464;0,6138287124415811;-20,9452225731765;12294,077027717476;-0,9626575280600589;3,112756758389383;-45207,19218623264;-0,04853209391416512;-0,7094372251799845;0,45850638575923464;0,650829178498631;-99,49300971733265;-22481,22415365598;-0,9529865801918074;0,04656981655205672;-212,605706128895;0,12310673102646577;266,8747805374693;651,175765084002;0,6335245433202283;0,7632956302814;85,89012631290623;-0,9050618263127863;6,1573567785931385;-44764,1085166947;-0,12436370691913928;-233,2259419169515;635,3683652274419;0,6652189546103421;0,6787249596896835;55,27608681306406;-0,9164084813536051;-0,8242933108820121;-1497,073475890165;0,002219493321198886;0,3732661052685064;-0,7077113714115398;-6,688575231189989e-05;-0,013337857025694486;-0,2971507895320159;0,006630536564301665;107,62057874413124;-1024,4786178470713;-0,0019307010590872355;-0,11614518001761404;-9,30027492526981;-0,008699380716883635;-104,81572611369582;-28887,143559111948;-0,007158349016882692;-0,8115351836130742;-33,163634001710605;-0,4430406519373229;0,5064875818706074;-3,41575389664973;0,1812444161476549;0,5601151927784918;-3,35034801300161;-0,4205897286210243;0,048737640886979655;-119,99616515791942;0,46600593335518514;0,31789533832818256;-105,10853520763607;0,0;0,0;0,0;0,0
0,007115577889447236;0,050810216895372115;0,3814839349984552;25,213732442967867;0,610488085754484;-96,21591262640516;-25781,321389228022;-0,9083102249987423;-13,83756971175761;-7556,717025786526;-0,049965176026406405;-0,7043179437668761;8,93024672557119;0,6482164853008501;-112,1738575649614;-12326,582471752145;-0,9651373936288096;-3,7258773065193598;566,8638094289797;0,12971816295101624;268,6316896686602;1164,8562138745242;0,6356327407235399;0,8352155955875272;40,086437033411045;-0,9069833863069983;-23,924252581765963;-20184,664885772814;-0,12919322140586276;-232,08569925079087;2732,077330218781;0,6666301894518742;0,7258080493879581;21,918795765968433;-0,9190220202846144;-0,11869705075366488;6768,59101936601;0,002662513624885395;0,3722894064692439;-0,8919452632640057;-8,256741142817801e-05;-0,01351645991649914;-0,12231033442866067;0,00791220172669022;107,12823819577906;-1722,657671483987;-0,0021420500047376976;-0,12808467417903738;-9,570219761043454;-0,009729368348692247;-116,69055507483753;-17220,331104796835;-0,008471051048721678;-1,055817490989803;152,7752367734821;-0,4539633812802194;0,47775076665415317;8,713746871136284;0,20616151451449477;0,5285939710511998;8,516875627947194;-3,025558820022813;0,021250788409139673;-121,82223155448598;0,4896771587959248;0,294761158722293;-57,270456774880444;0,0;0,0;0,0;0,0
0,008301507537688442;0,051621730754912706;0,3903173598518122;3,271969486420172;0,6076064666695634;-194,22949526480312;-31191,28493243341;-1,0252233518326486;5,760209269173577;-2625,628009040437;-0,05125447646968475;-0,6842538497779356;19,37630221832074;0,6457217268817831;-99,40599017418701;827,2561182406531;-0,95151787121768;2,130025189032802;-6726,5026768372145;0,13569391973146888;269,5687087403501;-42,93299147294439;0,637653066434775;0,8524242947007549;4,9218353529693015;-0,9093187318063188;8,34202688098853;-39,493256103702194;-0,13345110199716081;-227,38797449619605;5061,47791030578;0,6677958248706246;0,723387348841051;-14,210652698830906;-0,9228682965128013;2,482428829945057;-4564,67419352228;0,0031044334323506763;0,37111592735965215;-1,0583790871546015;-9,858368400703011e-05;-0,013523441925136161;-0,05738628268441445;0,009178492056874446;104,27256733671487;-362,5725785538103;-0,0022965502094411112;-0,1396546129598537;-8,947646763225416;-0,010585305423382757;-118,1129121486158;2495,4199009565696;-0,009750301303145147;-0,6594016715236803;-215,0223619813737;-0,46487918396190464;0,4487419771131478;-2,804987003553902;0,23126897186878462;0,4972685010235863;-2,76273125935839;-0,4868084222733467;-0,006249038577346766;-92,313801192475;0,5136466787922633;0,27171659620737193;9,001327598464973;0,0;0,0;0,0;0,0
0,009487437185929648;0,05248272752320959;0,3788267242805998;-6,628632523019795;0,6047432325733033;-176,67130802907863;-325,858529631999;-1,1588712073503922;14,113543038179303;-25922,698618913888;-0,052552571220864444;-0,656275551769335;25,8709964339494;0,6431542822680044;-102,98363622253235;-312,9842785727359;-0,9359378710761661;3,799194482283335;-29425,600627534866;0,14146982813093645;269,44589809325595;-2344,800273060083;0,6394096758379617;0,8318263344537032;-16,423763897703555;-0,9122968014596067;16,298470663717264;-19631,54293577877;-0,13770792049383956;-219,10587881759062;6937,292875699063;0,6689432125828777;0,6859018204351413;-40,71356233058144;-0,9272396589740043;11,058203065110762;-25818,669670937317;0,003545024096233985;0,36978122986378703;-1,1945118683411038;-0,0001146587478077409;-0,013546616368667047;-0,08804322111733368;0,010429729386717775;101,23388509174414;1210,7354652771155;-0,002415457573457656;-0,14973568507097929;-7,730777093014098;-0,011540010242923497;-131,12419934809455;22246,85621559355;-0,011057479167384322;-0,20119340864233537;-634,2788883887727;-0,4756462269789285;0,41999351311314465;-2,2451617349595256;0,25612338911128246;0,466177092012921;-2,219705325860281;-0,5759299624238714;-0,033577093497274994;-23,527612112762796;0,5372865265925945;0,24876561390060709;6,744776091371984;0,0;0,0;0,0;0,0
0,010673366834170854;0,0533718686627323;0,36510186259992455;-5,780202340681523;0,6020596703424146;-144,11295789753385;17561,990976988804;-0,4537501839792573;-44,64435304994032;-47321,853826829276;-0,05382077229395605;-0,6209092508648667;27,28438707927721;0,6406796424065464;-108,87806842571969;-1725,00778394223;-1,0496638920835808;-55,57217593530432;-46740,97460960423;0,14671250565705987;265,70780242477133;-6410,8458181328115;0,6408345665340164;0,80280343362906;-30,398820333798824;-0,9153223172577672;-43,97585239549103;-23641,580607451637;-0,14184696670306923;-210,0907971785096;8734,188482393;0,6698543784589196;0,6201270390949049;-54,832648049462925;-0,9275107349602348;-40,843692210131266;-42806,901112485924;0,003984133305405769;0,3682559129533001;-1,254378373596908;-0,00013071020846045338;-0,013727137664976706;-0,08752896758058551;0,011666460003940646;109,81626741054815;-8178,349745645036;-0,0025327382503008322;-0,15803719870794486;-6,36657874073076;-0,012459409857561873;-79,57226402925056;22304,750047849597;-0,01228060702649137;-2,8902705931139985;1674,1817152418255;-0,4876273200197191;0,39030007397657085;0,16517623596819045;0,28220891671138626;0,4323985360507333;0,13326716325182844;-1,0665062834777692;-0,062224893045899246;9,954223508224244;0,5623209640548638;0,22468846807599901;-4,603232247565407;0,0;0,0;0,0;0,0
0,01185929648241206;0,05431893882368202;0,3605959921661171;0,32069123920481335;0,5995009528184249;-135,7452859930002;11113,392775458633;-0,6989276776945944;-139,94857326289892;-49586,53781316571;-0,055074684282734536;-0,5852930151103755;23,513011658962824;0,6382463902551858;-108,53752384693625;-44,74653816536954;-1,0173423543194833;-147,75043380254272;-45723,48119218576;0,1515417739228725;255,60199773258216;-10359,317979045027;0,6420445076252896;0,7665696075756643;-39,815998415192176;-0,9194371671387696;-105,12888110123504;-5098,578471924919;-0,14592873699110945;-199,66086006423672;9620,10540256677;0,6706582117815145;0,5427072491592783;-54,846110904260634;-0,9332340373074759;-130,30729846275227;-44492,127633607255;0,0044215326421849265;0,3666783249668437;-1,2339160964726206;-0,00014686359331901946;-0,013914690724751775;-0,035379373571256124;0,012888913236506788;105,33067504990883;-24110,286777435285;-0,0026957415295272595;-0,1646751897621559;-5,133325889344747;-0,013351504289092552;-13,385232156127998;2154,4504973023004;-0,013505934486550035;-2,0133276953747306;896,4308548121626;-0,4982449345174802;0,3616566614615708;-0,4480336797736333;0,30691887151862346;0,40164609237110027;-0,4717081850561941;-0,9005703592015242;-0,08939045503586018;0,5689172328901562;0,5858012380709405;0,2018809764793607;-1,0864072181326745;0,0;0,0;0,0;0,0
0,013045226130653266;0,0553369552934918;0,3683664176643962;3,837104292647759;0,5969251805882524;-123,58567108855318;3776,9414134415883;-3,7358208519766567;-185,59890947698602;-32053,492029694582;-0,0563289265378498;-0,5609836309746747;15,850120040007226;0,6357432287965417;-104,72874651013888;-1227,0469412141128;-0,5559061218885178;-186,84396098830308;-26215,11874125147;0,1562575103487244;238,33719762059422;-11033,099933890533;0,6432093386698075;0,7065937521588948;-43,89546255303469;-0,9257870002050921;-53,26248809615619;-980,6016489929748;-0,15001426699520526;-185,63956047625288;8205,828102086409;0,6716857272222012;0,47776271774369505;-40,95304464678862;-0,9543135174552081;-170,33657945147192;-27016,172581153452;0,004856996135918324;0,3652794087243172;-1,165867442655438;-0,00016331708498899274;-0,013819104235873996;-0,008326931765692602;0,01409700085696461;48,31715402069276;-30296,699319439864;-0,0029356487230226946;-0,17001295523810575;-4,131548061253574;-0,01430886644829063;-59,93402137219698;-20870,18797926477;-0,014886091868582639;9,339519243936852;-12541,263886791687;-0,5028052888474523;0,337842600855732;-0,6751887670801177;0,3254035671874895;0,3842301495428281;-0,6921714352835676;-0,8242673874587578;-0,10995880399374205;-3,355004397566983;0,6021975926163848;0,18466208816511784;0,4285375703823669;0,0;0,0;0,0;0,0
0,014231155778894472;0,05604227715926405;0,37714233166082545;2,8028222145822945;0,5950537729792953;-119,67045530683464;7521,6394945605025;1,2874997394140464;-196,2628651108357;-13075,919491794713;-0,05722942228424008;-0,5495190249360655;11,247629724538251;0,6339479223946789;-108,26554009810245;3599,7385375172826;-1,3356936348082136;-188,8248500104705;-8295,14003723337;0,15960165965458634;223,99572576342237;-10927,609745464224;0,6439762885016119;0,6467204418841022;-43,983444982078794;-0,9278454257207277;-18,647952482705254;-18364,37442363206;-0,15294824602795645;-175,79461204218472;6281,927282766973;0,6725190611112422;0,4405941405403535;-24,602339038018737;-0,9329096350107035;-174,5504748281993;-9999,825437508285;0,00529071838814633;0,3639797719658505;-1,074221522334888;-0,00017979252726330237;-0,013723073206898995;-0,06776832815725743;0,015290461169895393;-4,935342868943946;-22487,851327589593;-0,0031342299538388;-0,17432685787065422;-3,3352896699013375;-0,015006358298672237;-131,35995236843235;-25962,236107969864;-0,015909960068540382;-9,701480436036597;-27253,41892552935;-0,5042322618078121;0,3165446549300643;-0,3907551137216044;0,3406579638970111;0,37372190803396066;-0,40845404217218106;-0,8621837253121581;-0,12709508903638947;-0,20818954684601365;0,6149155942681763;0,17033930105978898;-0,6279099139734635;0,0;0,0;0,0;0,0
0,015417085427135678;0,056326528196933304;0,3767957169647891;-1,0421854885818709;0,5941055533055887;-124,48966990450675;22606,23163985709;9,276845176894362;-206,88915798623933;-9841,681676096234;-0,05769523223305816;-0,5431371595551979;14,402735517962302;0,6331317481233778;-113,46004815146564;19371,32159238755;-2,570151478097582;-192,6610122361644;-7545,540002199617;0,16118835282976762;216,8017876952289;-12977,77661712785;0,6443192108270751;0,6053595531863477;-41,5320087264035;-0,9267093139569019;-109,39372356302654;-43407,518316392016;-0,15442471195875035;-173,8803490342734;6098,1020268340235;0,6729212729533414;0,4298614932680716;-16,062707787654105;-0,8942325444735959;-180,34466932670603;-9261,037364187065;0,005722925449028546;0,3626999794033665;-0,9693155390087609;-0,0001960753117012391;-0,013928699941667792;-0,21101159476455103;0,016469091762878352;-5,316912484313178;-6082,109061513745;-0,0032419327822659967;-0,17782301693534033;-2,7203169180935842;-0,015371231673133406;-131,14159111497037;-7485,69893189373;-0,016408001804704222;-75,33416923910929;-29552,36447159057;-0,5063019638827424;0,29473651202686335;-0,32918436274222684;0,35657196440447314;0,36180417126343895;-0,34357849215119546;-0,8510173440687493;-0,14492599130748196;-0,11673248145671639;0,6283848479089147;0,1554264770406253;-0,576341721433896;0,0;0,0;0,0;0,0
0,016603015075376884;0,0569880946939812;0,3712036690625493;-2,6155588657981874;0,5925372301372118;-81,9893268519978;33289,03165022038;-28,021025123481014;-216,40400669125262;-20898,017280697262;-0,05852295992900631;-0,5222114066775643;20,345636371867666;0,63177124174419;-74,17517110396831;30301,447134924776;2,505336721937189;-205,4030143848087;-13462,93682114344;0,16373677743679607;199,81437492867352;-16385,136687758542;0,6453193757198988;0,5570826926076209;-36,43023317587829;-0,9444657338413655;-189,7790034463736;-42124,41199246126;-0,15692107480040388;-167,01985611843034;8204,823306468985;0,6736403027363347;0,4151522561782463;-13,797432666777468;-1,0756976076142273;-195,63234449818077;-13500,702419580013;0,006153583712473879;0,36160660005445494;-0,8397542944345462;-0,0002124768220944322;-0,014316328117777645;-0,3096388670880385;0,01763295302828528;3,74922796807422;2401,0519995037857;-0,0034746414605159376;-0,18063575316901373;-2,359436558647323;-0,016202931672239494;-117,01247609667956;4650,456187697657;-0,01746907902333242;-112,41129807552022;-18018,71036337925;-0,5085354049298463;0,27273484733194525;-0,3176343150840582;0,3726867206751397;0,34947959250029065;-0,32785369466457526;-0,8288133146167156;-0,16302056989631897;-0,7130567146295624;0,6420903796885562;0,1403361801865855;-0,27509971825886;0,0;0,0;0,0;0,0
0,01778894472361809;0,05811851549975526;0,36676238817360396;-1,8307794058018199;0,5902797141442392;-9,63541903268932;30027,89929147575;-93,10394098266684;-241,6248966354451;-19797,122590058698;-0,059750903079310455;-0,48737628292220647;22,54191451977256;0,6297324805266818;-8,734215187398933;27283,75251321981;-4,284628468888467;-226,37709836697672;-15685,512556725205;0,16737154062054765;172,21305368366131;-17146,226803296217;0,6469511672459769;0,5057083255792287;-28,523517244973796;-0,951102019604573;-204,9942987530563;-21141,117437943773;-0,1605188937019505;-152,19107341614827;9573,571977958389;0,6747588118899609;0,39111682714439056;-13,055408354724689;-1,0651428798042193;-216,85925996842727;-14899,894613466902;0,006582830770383869;0,3607373348401721;-0,6977055375134308;-0,00022926143377562363;-0,014739853479072817;-0,3213479987245242;0,01878205253614658;1,5052375332636265;468,2856575177867;-0,003848052221738607;-0,18312859967265602;-2,233329831785236;-0,017538973464846005;-118,3538147536979;2218,138256267557;-0,019150978282353275;-104,83954082454491;-2323,7695565017193;-0,5105690161966138;0,250949320752194;-0,24617817702320136;0,3885674754476861;0,3376358657482568;-0,25326385633962223;-0,8198300144135283;-0,1808206636080483;-0,4859549074456735;0,6555210503577619;0,12545463729249992;-0,2727386346459313;0,0;0,0;0,0;0,0
0,018974874371859296;0,05905735279921932;0,36829649152519867;-2,915942106448013;0,5887580437334661;10,378353781876928;13569,154776223344;-111,631119698452;-299,15009585146265;28045,867899885823;-0,06065213790489251;-0,45911317084258085;16,289307974673708;0,6283070823627074;9,328420037199916;12258,063494042424;-55,11421830073242;-249,8545052501738;-10111,800147926922;0,1696264304997648;150,75453292734056;-11128,069226316531;0,6481019699855434;0,4829847420348109;-18,191636242807427;-0,8985166527551577;-209,80859223894245;-19573,539201285934;-0,16290162311470935;-138,38013214918786;6093,802689844815;0,6756451969518422;0,3777838747440371;-8,80237487392252;-0,2658800295634408;-234,44630326527619;-13265,884926358172;0,00701098078463387;0,3599864323645064;-0,5755227840612788;-0,00024655527558881726;-0,015101783019113765;-0,3002083240064578;0,01991633964452092;0,20928736616589966;-643,3135844270956;-0,004163217902539575;-0,18580723907580815;-2,2214096731600903;-0,01862649612895068;-118,24078942807975;892,1646663187416;-0,02044515091194198;-100,39658834034591;1745,8176018296588;-0,5126666137237784;0,2293391857102922;-0,1800067817649638;0,404398673907805;0,3258194263400909;-0,18387703054774107;-0,8096466213706999;-0,19838158624485291;-0,3281611917542073;0,6688651825000528;0,11061159172978793;-0,24563092921696206;0,0;0,0;0,0;0,0
0,020160804020100502;0,05956865507067274;0,3658319834317105;-3,0608864015455954;0,5881210165369323;-2,1710012637715446;-1084,808527407754;-100,83741248923829;-250,32463894851014;62168,35401026395;-0,06115239245257288;-0,44706821282204123;11,078540990595549;0,6275782851661739;-1,9760437320297715;-982,8140167658686;-105,02240154416639;-257,7586794785599;-10597,278520903392;0,17055174081641727;144,98993493046603;-11424,58519496804;0,6486575486533014;0,4753344560370447;-8,337911087399323;-0,9839934860918932;-242,39834487536334;-8060,141344461248;-0,16395937475597136;-135,4331936497926;8728,958564910254;0,6761443464023366;0,37416116995024873;-4,764086256847498;-1,3765774841833178;-247,2291426453128;-12340,812444942718;0,007438169785882269;0,3593565073912196;-0,46569000753521866;-0,0002643366271716278;-0,015426539746400831;-0,2672863384078956;0,021035961892730916;1,0118363844849625;62,62841359461086;-0,004337942737672214;-0,18854557306884137;-2,2164882135105346;-0,01921188401912548;-114,88486021022165;1953,147394536867;-0,02111312572698737;-104,19647118785483;-368,0348079347467;-0,514689698565253;0,2072370401796149;-0,12434013110211946;0,4204335509455749;0,3137571718628146;-0,12478879230054118;-0,7972251394005321;-0,21661204289960376;-0,3225384548723026;0,6825162168116155;0,09559761732563071;-0,1623320177372916;0,0;0,0;0,0;0,0
0,021346733668341708;0,059882505652747046;0,3544909627457565;1,5849049455393838;0,587755580998094;-2,9016374454260085;-1755,7626492594927;-100,41559513731684;-48,111972462076764;21426,90582796766;-0,06156093458697797;-0,44536512674745243;15,577585871534895;0,62692096273337;-2,656353415624536;-1599,3004789560885;-107,61687515177407;-252,28279110555494;-20083,889793776238;0,17126014837596903;144,31404238965047;-27424,612983751314;0,6490870288668981;0,4634038222138138;-1,3583271588799861;-1,1636129440506904;-282,7108057452628;36897,74923904826;-0,16461533609151613;-136,3240705823441;25090,976129934177;0,6764775968679233;0,37110307262083114;-4,723877192556383;-3,7807442650472707;-259,52932243720454;-14855,168383892267;0,007864513543489094;0,358879005481413;-0,3508851472530029;-0,00028252806404159705;-0,015748688421535872;-0,2232290808804499;0,022140889300287472;1,050087680006652;106,78233661503991;-0,0044507174603698515;-0,19109417127759404;-2,2175811980245226;-0,01959594315308528;-112,31408999120463;1967,1908847049021;-0,021562330554732837;-105,32624125620734;364,760394230066;-0,5166220776641782;0,1848345687732624;-0,06419980144221982;0,4365645560776352;0,3016177220372263;-0,06128808194918218;-0,7858466622432113;-0,2352516812111977;-0,2608425570825117;0,6963273226747214;0,08050602850064832;-0,09871871336485985;0,0;0,0;0,0;0,0
0,022532663316582914;0,060921233303492896;0,35892579580683026;9,419021124761148;0,5865722919530589;0,07764370581519867;756,3772099953852;-103,9125755446921;-53,71274975682178;-49013,54615856516;-0,06241377107135446;-0,42116308106514566;20,404808848326326;0,6252995116454754;-0,00047535440325085815;658,8100262272017;-99,86121633648963;-298,86356772325473;5633,130983393278;0,17269323209778048;95,64183423072426;-39430,60100537265;0,6502031054998106;0,4643979756573886;4,406400912310374;-0,5479389736043138;-186,9227659810896;45948,53435640103;-0,16590235032568354;-90,82099083553895;37017,40101453068;0,6772749043224039;0,3630476636514246;-2,865176769980052;4,678857681232464;-280,114505478578;-16798,851912085156;0,008290279565868839;0,3585337619533465;-0,23397644795758663;-0,000301064409028185;-0,015995607798446793;-0,15684242978925012;0,023230411105900378;0,8499380591233501;-55,37187172150103;-0,004852489471776751;-0,19360607305783725;-2,4787419099980155;-0,020911973299263985;-110,73564272836552;2237,6130922326447;-0,02295626475128067;-101,64060949577156;-1394,3368602025264;-0,5192448215983181;0,16524976077544626;-0,006604763345505775;0,4516915414184877;0,290463240220718;-0,00043496129377213697;-0,7734088933294352;-0,2500573091035409;-0,18568300470862772;0,7085410696288038;0,06624064564306317;-0,04595236771464289;0,0;0,0;0,0;0,0
0,02371859296482412;0,06254532081029904;0,3835335681717864;16,45419950031872;0,5847917132605652;-0,3902382837949265;259,3195871791227;-104,82661635604384;-295,42585321144344;-89920,45565324143;-0,06355711274711669;-0,37892256164107885;18,40149497971465;0,6230806723595765;-0,44823545364425516;211,39600280287007;-102,81163292990297;-329,79723775007545;53863,500896121186;0,17455797683128116;14,070294063936691;-34849,15080042174;0,651814023325028;0,4804887435368136;7,058960146350946;-0,47848128674620827;-36,08912913811836;-3120,7826214820016;-0,16762277072896467;-13,403168227800313;32990,868033370585;0,6784641368816774;0,3564080491843036;2,3114208678471484;5,792508667236261;-305,88931502264853;-15286,878608099767;0,008715629228430267;0,3583175609745215;-0,12940671074435253;-0,00031989347855360513;-0,016126263662158417;-0,08111734175659306;0,024304377355171696;0,873643118851903;-23,56530229432053;-0,005476449662728908;-0,19657845337656835;-3,010008443066557;-0,022957849277163482;-108,41464093525059;2198,1195025184666;-0,025073176541072186;-101,15932959619913;-1829,974191624182;-0,5229705918617132;0,1501115929105791;0,043781088407927694;0,46524221206665484;0,28084173823074254;0,05310277334858113;-0,7585929491770128;-0,2588120648549798;-0,13296903099817461;0,7182428385588346;0,05327062112323978;0,005532459955555404;0,0;0,0;0,0;0,0
0,024904522613065326;0,06345436388911596;0,4063029247758392;17,528212560552443;0,5839972085616314;-0,7758086814623945;-145,18733591563338;-105,19214813941956;-391,94148891242475;-57598,472347199015;-0,06413274211345177;-0,36436597567255646;9,463086050291423;0,6220538597499976;-0,8231316808011842;-149,09846532083964;-104,80974272573297;-163,28306891590495;47767,74084723576;0,17539568763995678;-11,98900444887988;-16262,25287377711;0,652691341455644;0,4910488348455624;1,1758100432689802;-3,54236247157138;-136,3871801943363;-61160,092382249306;-0,1683545618971339;11,380866277667447;15452,679610628611;0,6792107350412178;0,36709394581595667;5,7830996042747715;-44,86953279201327;-321,3381713409646;-10390,928062820003;0,00914059645502177;0,3582450401470138;-0,059463168463251594;-0,0003389669877694421;-0,016161317715280083;-0,035050413000755586;0,02536332090637026;0,8899004152018486;1,7193597410922627;-0,005799744872963884;-0,20068117459540386;-3,488517133105933;-0,02408038338567812;-103,45500547970053;-501,7957255426863;-0,026206838377861367;-115,18320509624894;12318,400982250207;-0,5276015093754478;0,13863675657968028;0,0892507763735888;0,4774912599499651;0,2724896871031007;0,10161999481346073;-0,7420444657710816;-0,26258201717854834;-0,08475724464513978;0,725874252882128;0,04136940341825159;0,050893798163190715;0,0;0,0;0,0;0,0
0,026090452261306532;0,06386073516956786;0,42431229951857335;11,758590720766172;0,5839243515250097;-0,4990281117763572;47,438416290978765;-105,70934487693235;-357,645019025527;-3958,3317044537357;-0,06432725626779619;-0,3699034604013823;2,67288771487501;0,6218851514831354;-0,5947739735175398;27,296586455072553;-104,34695297432661;-32,674572203954675;-8716,69311370552;0,1754977786385465;1,558631841770412;684,3446922134814;0,6530578860530789;0,48611319206261944;-7,829286401990728;-0,15337593884945447;-336,5047896845869;-78961,69960678444;-0,16834055557543787;-1,499600115686388;-644,0444978058828;0,6796453898505546;0,3819666947235919;4,370171782196056;-103,23245333372647;-327,2353496796589;-5499,180644057009;0,00956540184356437;0,3582367786028904;-0,03364830157643778;-0,0003581651578024293;-0,01616613792821129;-0,02580323050134601;0,026407058944163127;0,8616572433540541;-11,619291057000174;-0,0059006448503035784;-0,20538547384288283;-3,538955423799581;-0,024543346480442412;-105,02969853151424;2205,2782766753803;-0,02664226702029675;-99,57820771869157;23266,546212287478;-0,5326112927932493;0,12870687760978872;0,13286428940289638;0,48918956879214726;0,264675766891477;0,14823211924321314;-0,7248149054078528;-0,26425050736684735;-0,035436281543963374;0,7326287508789213;0,0299221212809892;0,09257732755430087;0,0;0,0;0,0;0,0
0,027276381909547738;0,06445419157008195;0,4390500233664266;2,9090673977821297;0,583681722251372;-0,4323384925869718;67,14715556550765;-106,20486935236592;-357,38383359308693;2804,307389157372;-0,06465393047927818;-0,36772063667132804;6,8145734766829795;0,6215158634068504;-0,5444072511989495;44,45818046006428;-104,67972694821432;-201,06444400165745;-66556,15832670897;0,17574145575791364;3,1535367031179184;2139,3300016466137;0,6536015586954845;0,46675395299790035;-11,341784749507088;9,918456792639628;-369,7814520619352;-37093,80513793738;-0,16840581002284344;-3,0051579999338296;-2023,7684069021088;0,680200617702255;0,3813774609463354;-0,48674335619081543;-109,62628561062772;-331,23632895245197;-4178,37738136416;0,009990265857403874;0,35819559703998;-0,04443694736827911;-0,00037737240552410475;-0,01620482148305996;-0,04100290932955632;0,027435217600172267;0,8469943219671352;-13,233459023909468;-0,006062379380137283;-0,2096409956957365;-2,9391418957484508;-0,025238968732057266;-113,00901461972414;16946,535942266608;-0,027317014810438654;-29,169441091142623;10794,602998816217;-0,5375056386352364;0,11831611157695728;0,17702673065865146;0,5010512330679002;0,25670270121516875;0,19540608744184268;-0,707788702517392;-0,2665467006750313;0,01352575349469447;0,7396411665346619;0,018342334725872877;0,13536219036451633;0,0;0,0;0,0;0,0
0,028462311557788944;0,06495154314830921;0,4341898104195381;2,3671112101340066;0,5834317282491874;-0,45913220227655765;18,332470669710318;-106,59214104942313;-371,0867986033628;-7216,946598931829;-0,0649505110407655;-0,3539677737790284;15,737592238852214;0,621074247045363;-0,589765205065231;5,170767104025888;-105,27724460278579;-362,0653105932185;-68617,5661479345;0,17598914023142195;-0,26656695783664097;-767,0849746938404;0,6541044831781859;0,4500191228861737;-8,10108722919049;-20,867943519007156;-347,207236326971;-3553,465609557685;-0,1684791408608286;0,2641004854067563;742,422946686743;0,680680396326138;0,3721707618936027;3,5641127179284076;-97,30499088944475;-335,9326651114053;-5536,575462758214;0,010415102202921746;0,35811938985054564;-0,05166316875973074;-0,00039660031383476497;-0,016271757210817285;-0,05926481206048782;0,02844801371179186;0,8380845078945461;-9,915260487454793;-0,006227924324416164;-0,21267040914281407;-2,0076714406970555;-0,025898823504264163;-81,44734909700935;29218,057180798554;-0,027963318897541122;-24,247836232814137;-3177,312401655665;-0,5423589081623489;0,1077232817887229;0,22144940922260906;0,5129916098774224;0,24865297283435675;0,24285071093044353;-0,6908470752809521;-0,269114133880772;0,06239100124168376;0,746784872936651;0,006690041507016765;0,17863636792745533;0,0;0,0;0,0;0,0
0,02964824120603015;0,06543840212187024;0,42280247063765347;11,922556693822624;0,5832735738938908;-0,418888670311411;31,76975822308787;-107,03994450533918;-374,77892930481477;-8578,014663125692;-0,06521220014038284;-0,32962668368570897;21,42565482498337;0,6206940645607287;-0,5788481046946903;30,005082374703463;-105,67060792690644;-352,0980936247586;-18093,34319640365;0,1760833722106003;0,17514525972824427;-344,59680485710777;0,6546377399424881;0,44585283509085083;1,5350082540226637;-86,99985704014324;-362,0469967593925;-8290,96226406878;-0,16846726462591266;-0,13867978310342036;339,052075073359;0,6812458404765024;0,3744455319889311;18,181520809842993;-98,26911493254404;-343,17293055725446;-7484,132845007277;0,01083983620355447;0,3580435955806185;-0,03319343908594033;-0,00041587345624036854;-0,016352197792828854;-0,07076278061753488;0,02944584228182977;0,8248364164524601;-10,39127403912252;-0,006383390138803193;-0,21428439150489334;-1,0995705316861388;-0,026552335637682944;-15,095576485343312;28108,03326416236;-0,028590882418794383;-92,63274760876193;-1316,4879247113668;-0,5472463688969011;0,09728297368999933;0,2656807836417079;0,5248740940211466;0,24065966879778042;0,2900985638468579;-0,6738403423735947;-0,2714758588879007;0,11134648072894196;0,7538346826955821;-0,004911650917073108;0,22154381990078997;0,0;0,0;0,0;0,0
0,030834170854271356;0,06663062806440154;0,4541504762151262;19,223250566600736;0,58297147333032;-0,3564105491195329;43,574600585144054;-107,95628945056868;-386,3527206866036;-7686,742368792909;-0,06577216964133448;-0,2972053202742191;18,167176454533877;0,6202298120203585;-0,5040148844962804;53,551276783217794;-106,41219924471815;-335,899268292399;6134,6946699726395;0,17610167375445435;0,6452366040351918;139,73389002422454;0,6557983228573808;0,4517644577145975;15,744509057043578;-108,97374064860544;-384,5427523505269;-11242,653375192318;-0,16847296296529787;-0,5735748183245831;-125,95357412789188;0,6825828797944001;0,41395239515897964;29,077691370580293;-113,962571080206;-354,5480277482736;-7853,365482466357;0,011264490763077468;0,35802289375789625;-0,0005598015490117596;-0,00043520296926291785;-0,016439234463572563;-0,083274610080876;0,03042909271475938;0,8114934542032848;-10,931525445725816;-0,006643462727752943;-0,21499067645196765;-0,44702585391637034;-0,027827513395086503;9,714687619114917;14232,729858537645;-0,02979791645095322;-73,0401083810452;14649,960310515538;-0,5521064455390275;0,08687669246088359;0,30979357558087084;0,5367151830670859;0,23270637835931207;0,33721123844209205;-0,6568369813464898;-0,2738071505310247;0,16009071553422108;0,7607940222054708;-0,01644706244495019;0,2643465317478461;0,0;0,0;0,0;0,0
0,03202010050251256;0,06802166759028976;0,499069217633087;18,562891258240864;0,5825944210253707;-0,30311300687724463;36,611917581007255;-108,97247100166736;-400,5661778913033;-6472,294916489139;-0,06643824838534003;-0,27438401409812047;8,707074248688889;0,6198378542673659;-0,41549620890068745;55,55942560211647;-107,29119635919837;-346,14104838980955;-6435,268958075854;0,17603166767826978;0,27750153220286394;-77,54981413888058;0,657163101314268;0,4779214541256884;19,792892034127885;-102,25141648165203;-394,756221247852;-10912,395549374483;-0,16846303715129105;-0,2192081558778553;76,5266857949823;0,6841732170100416;0,4658489051475971;33,97627408866965;-102,85434578570697;-365,27668178509276;-7883,752330339322;0,011689096471342631;0,35805581136385295;0,02420667979085451;-0,0004546304247693227;-0,016541454464982203;-0,10314961809489906;0,0313972789439186;0,7991032000786427;-10,670652956202462;-0,0069238894030491695;-0,21516915153198216;0,005715765349514732;-0,029259930045283804;-1,1090044960002503;-128,99619293216324;-0,03114304023918303;-0,1650327082280235;24935,651426852193;-0,5570072246701038;0,07638407879379189;0,3541454827550016;0,5486387735701239;0,2246732218196884;0,3845914742833421;-0,639839716216968;-0,2762281165847505;0,20917981290325677;0,7679255321859444;-0,028105293327447694;0,3073946290245182;0,0;0,0;0,0;0,0
0,03320603015075377;0,06873747748612576;0,5040802587468804;11,146706351189245;0,5823305099430537;-0,26919930195968;26,199931906920707;-109,5151135509584;-403,1703402231415;-4126,765976272282;-0,06685191032291114;-0,27782614082108836;0,10896386277583986;0,6197660023953688;-0,367330738592299;48,47455547022226;-107,81497717702943;-347,11204406240097;-20396,94731024315;0,17584614691948236;0,15327797449192776;-103,23447906793785;0,6580140946662942;0,5227335099931185;7,887583124928705;-113,357715884557;-395,18659675276774;-17666,45826236724;-0,168360609067;-0,10239356180395179;99,54640578885197;0,6851631864249853;0,4943761368237473;37,197582295229736;-35,49329709902838;-371,0277882673152;-9635,960601067898;0,012113695834453722;0,3581053284240104;0,023678546599092562;-0,0004742056848807736;-0,01667512890450708;-0,13292184121863646;0,0323497600034469;0,7865435344675806;-10,638638977262392;-0,0070782485930907324;-0,21499266969315783;0,46546923664312595;-0,030061041041397986;-3,1891841221407167;-1947,1542610402698;-0,03187451713701097;10,117412918251722;11175,671818842282;-0,5617338235626738;0,06609939041773447;0,39775645416671157;0,5602994124668016;0,21689105247642881;0,43112998375302103;-0,6228685842660144;-0,27847047086095217;0,25694072959421765;0,7744950172260183;-0,03934912459243943;0,34980527824128715;0,0;0,0;0,0;0,0
0,034391959798994974;0,06932169550098795;0,503301086029789;7,29524100565337;0,5820906911497017;-0,24607292752699592;16,597336761738028;-109,99495983429269;-403,66344783734394;-4299,428217057635;-0,06724177118568389;-0,2869588962602417;-2,735696614448159;0,6198937153332615;-0,3220552494298978;39,45091592193918;-108,27466984170262;-386,65536235053276;8994,284714885493;0,175696672840273;0,17149598793646434;-26,84873173555038;0,6588591930432044;0,5121516761961135;34,88539747435816;-85,00582598886207;-430,9561448579166;9111,74250227081;-0,16825549564524955;-0,1181991384511765;24,37207877342787;0,6861789438522645;0,5353093981641849;38,82147739009782;-17,766625174854095;-383,1252630903914;-10711,618083366362;0,01253837308439874;0,35812820648259797;0,015991663011292716;-0,0004939404889972127;-0,01685224055888036;-0,16656873840088093;0,033287247315008976;0,7737933461252916;-10,752365026223467;-0,007186085014998706;-0,2142402857659292;1,0886702021188828;-0,030730457569388605;-0,29605256830021986;544,0544338561227;-0,03246243954997321;-3,9553819964214276;-2584,4863475391535;-0,5647106767620595;0,057795425159975294;0,4341114716599042;0,5693887195621228;0,21157612247620608;0,4694100156003222;-0,6061857147588972;-0,27903765962214044;0,2914304062112749;0,7755164770001848;-0,04649939935353155;0,3860737444108898;0,0;0,0;0,0;0,0
0,03557788944723618;0,07009055814726053;0,5215279236865501;10,647102692175402;0,5818282147126047;-0,22883593584637757;10,674003297149863;-110,62101685802587;-411,041393220104;-7621,5914735589295;-0,06770238714403902;-0,2864723325403778;-0,8425124440539552;0,6200466132420808;-0,2628176377302701;33,116091779715326;-108,81389134341764;-414,5346652150072;70854,1158731736;0,1756673958981203;0,12469386808866499;-23,048717683318376;0,6598946902390815;0,5013935589271585;53,131260818453114;-18,66495925948977;-453,9673518061049;73657,57461545148;-0,168220374223732;-0,07095398251983412;16,40939947864233;0,6874471856718508;0,6002347974318935;34,426035142730235;-84,58913019982207;-402,70900034820374;-9475,772106188433;0,012963126419759883;0,35812270286749165;0,019723144559062402;-0,0005138571724332906;-0,017074186161562116;-0,1979555599480045;0,03421014154005189;0,7610005788670395;-10,810403059698043;-0,007300824768681319;-0,2125997958394974;1,9244356495263406;-0,03153268479973486;-0,5738834562419968;290,43604846731523;-0,03317297462727882;-2,5044031036759207;-1339,404738130934;-0,5655948725875656;0,05185728311514228;0,46179048542901846;0,5754015718698315;0,20921167146815856;0,4978173393064974;-0,5898534423434132;-0,27761152151379703;0,3100448322854478;0,7699092562206231;-0,04875418147359524;0,415005422418814;0,0;0,0;0,0;0,0
0,036763819095477386;0,07053976125685045;0,5377279653260997;11,816241075130236;0,5816565088289452;-0,22341204714261964;12,624013174741666;-110,97443927895551;-424,2167238369473;-8789,487187298044;-0,06794407668722646;-0,28331833781137467;-2,93916687549491;0,6201189429031772;-0,23368073565830352;32,005359952332185;-109,10157296820768;-228,98654386575228;70827,01829452653;0,17567074423346457;0,0833683418102408;-29,89417528625897;0,6604676575088864;0,7136169802471797;-115,07927403504539;-34,19111152691631;-280,66456172854765;108429,52688837601;-0,1682348760353582;-0,0456152494261441;22,560514324297614;0,6881270983955906;0,6391914467076537;17,92370949922598;-118,4644207896464;-411,0547288567229;-7270,572269857765;0,013387819425995736;0,358149963843322;0,04020287400429907;-0,0005340075620029559;-0,017328050423692783;-0,22443426889831564;0,03511789878165001;0,7481581597875293;-10,848321517674066;-0,007359236943009934;-0,2097819307471324;2,870260288469232;-0,03195411102191747;-1,0830140005122555;-164,0926951312788;-0,03355837971259801;0,08890916639235003;893,0127521016245;-0,5663524754633489;0,04608518394901116;0,4888953920748053;0,5812054848738019;0,20704132520374524;0,5255811664702099;-0,5735502047970771;-0,2760563763672903;0,3276665057588978;0,7638890146154421;-0,05069292982292336;0,44344100882221726;0,0;0,0;0,0;0,0
0,03794974874371859;0,07094170116901818;0,547456122699175;10,648625726948119;0,5815738853082794;-0,21277718518658825;16,9145950196394;-111,29977866160905;-436,4884073957818;-7948,046726946892;-0,06822314156986616;-0,28761006007536194;-9,426586109582026;0,6201982443011447;-0,21351820566660995;35,18485669048492;-109,40335081133246;-39,09648852083609;-4611,781217374359;0,17561494056622676;0,06278695655292058;-28,041472890503613;0,6610919381172862;0,6117795346502148;9,942134131386524;-102,64013899387561;-48,45735802224883;94530,57580214174;-0,16822457564113;-0,04116764690604428;19,878549203197235;0,6887085420827717;0,6365910482898713;30,462476090067987;-106,46043062143632;-412,2010050770389;-7073,122326819537;0,013812502386074784;0,3582223114530156;0,07322332821626952;-0,0005544283693481785;-0,017607783245853388;-0,24971245204718945;0,036010506121262775;0,7352661537292648;-10,89148997671807;-0,007401403391921952;-0,20574782731307195;3,7740436348387356;-0,032335384433627226;-0,865928458165336;8,55454632279367;-0,033911131096412604;-0,860989484754673;54,15572838166625;-0,5675082221342687;0,03982984552941597;0,5177230778238542;0,5876268398769495;0,2042861531119429;0,555290200657924;-0,55716890941353;-0,27489168998916785;0,34835542533542185;0,7591472715664318;-0,05359183167585438;0,4733488654767869;0,0;0,0;0,0;0,0
0,0391356783919598;0,07191234062680463;0,5592477626045143;11,696420176094687;0,5814923366052808;-0,17697690230246846;15,022458125370619;-112,12878948977706;-441,66922609031064;-8885,361763693289;-0,06899726418139544;-0,30651529295034696;-15,27646777216531;0,620413267490793;-0,15294236209271542;41,54735680375891;-110,21783725455963;-207,04456808460657;-94744,43789103218;0,1754365440249705;0,029562099557596602;-35,221344971099704;0,6627325126075359;-0,11651140667762344;705,1159408153641;-116,14618876724697;-25,606485596082504;48488,379119340745;-0,1681317199044602;-0,0025676703466118445;16,76817948330169;0,6902146955202026;0,6374450499220843;92,37152514412278;-103,87255901211698;-422,97573304201694;-11643,896593080597;0,014237320970902311;0,35832291881010936;0,11084603290598145;-0,0005751547768139959;-0,017915467724689306;-0,2810983328104212;0,03688816688468908;0,7223312736777738;-10,94117435336141;-0,007515604824196941;-0,20066897159302147;4,447442203659895;-0,03338129673971264;-0,7908068477683247;56,24420091532241;-0,03483599520721893;-1,1087672361175112;-179,37073860045228;-0,5685772424327853;0,03360546826842682;0,5463362296822604;0,5939863299974776;0,2016066407664624;0,5847254164129607;-0,5407793421371471;-0,273668233984504;0,36848093764619394;0,7541660799677249;-0,05634600889403893;0,5031067456955594;0,0;0,0;0,0;0,0
0,040321608040201004;0,07298677798356992;0,5763108383869695;8,606561055209507;0,5813364623109781;-0,1568065728445585;15,48847330084563;-113,06226401290157;-450,6188943949855;-13297,66226938788;-0,06983537439010985;-0,33007183280331653;-18,876501446796784;0,620500983537957;-0,09352980044888831;59,29965597047427;-111,11624527652535;-468,5379106772401;-77792,6398455866;0,17516720488178936;-0,02286454237165564;-40,571758196239756;0,6645422784451575;1,5898937828103028;-704,1351841192164;-104,48451458162512;-38,61660268700863;-23375,756564604413;-0,16811590068474855;0,02668463232502418;10,768788787162016;0,6916619412925096;0,8334731200230845;-13,94067659201729;-108,36918017869468;-441,9217062101119;-18464,321483822194;0,014662235961340881;0,3584718290079972;0,1543726479913419;-0,0005962697405122655;-0,018264824374739287;-0,3233563453971147;0,03775016034388265;0,7093264983822773;-10,985191695146662;-0,007656192375062305;-0,19489968017740525;4,651820207114009;-0,03458039932950358;-0,8289868255843243;4,923795498695889;-0,0358583381192501;-0,8062550451465738;62,03746882577874;-0,5696110287300654;0,027666965436209282;0,5742692582544127;0,6000535299968659;0,1991499017643486;0,613498036019753;-0,524479381930314;-0,27232599519101247;0,3879906273590394;0,7489440120178924;-0,058804434953103606;0,5321757455609841;0,0;0,0;0,0;0,0
0,04150753768844221;0,0738645360303107;0,5904276288275027;-2,3153297805469304;0,581237087761464;-0,16229241174280384;25,35044951527648;-113,91825699228531;-472,03955080156754;-19465,54367951888;-0,07049611305999583;-0,3511479570406098;-19,876792869652284;0,620641048016951;-0,0427638652547776;83,77912736816185;-111,91147359743998;-508,10857739129324;54844,43554711964;0,17484711673083667;-0,08147152001710019;-33,443594531142345;0,6661429001496154;3,342343706310452;-2158,8111758008927;-106,66977861778813;-4,65116020135833;-104019,79990677978;-0,16821536831370815;0,016637294978218767;2,584754057236731;0,692741043506939;1,0014061480977907;-127,90298878457014;-109,04269690792522;-466,22517020455757;-23503,0589145383;0,015087246248381815;0,3586862967301481;0,2095482406311474;-0,0006178256171606026;-0,01867245037921961;-0,3793075450324548;0,03859617390472429;0,6962528783834774;-11,00221483978587;-0,007853988318534549;-0,18909079997648714;4,203561805874249;-0,03571315672492662;-0,8102430809096483;3,7850468464959293;-0,03674521254272019;-0,8005842054768999;46,41652786695757;-0,5706784056996829;0,021695361459885723;0,6023322293032278;0,6061654796220393;0,19664842936222493;0,6424203210248195;-0,508175535891284;-0,2710141674250097;0,4077512739603625;0,7438268596524797;-0,0613377469809568;0,5613512985009591;0,0;0,0;0,0;0,0
0,042693467336683416;0,07506269030461563;0,5773803841816008;-14,22619363375666;0,5816540985581357;-0,12072551700942895;39,67405521100827;-115,33913985118554;-501,4657031104521;-20866,741687184145;-0,07150504678534246;-0,37600086787506304;-18,385705067237858;0,6219282758232737;0,09154003513037148;85,17958608726349;-113,28135492623568;-267,13631103934927;86107,28044791198;0,17448777332610513;-0,11389025920441488;-19,005390813813488;0,6688390588699255;-6,592974475866098;7579,009315886222;-107,33601054050722;-212,19747427625572;-152002,03289223753;-0,1681496505913609;0,012000946322240247;3,7026546127369384;0,6952711007537703;0,26763639957210283;562,0301563873418;-109,8290979231137;-499,35066345526985;-23023,38256678696;0,015512511794821592;0,3589614550048398;0,28414904121449835;-0,0006398006750386402;-0,019154307780359526;-0,4482893627600023;0,03942707200272199;0,6831812922557938;-10,962384894902007;-0,008325054475198174;-0,18432536466456992;3,0683077626841544;-0,03764386618420899;-0,7892639173467826;7,800737721110722;-0,0382042327610308;-0,8384372331110936;-4,675790347274545;-0,5716181497633253;0,01467898420616379;0,632449440961828;0,6132527083968107;0,19348930250670401;0,6731425115976234;-0,4914888985796105;-0,2699944903899367;0,42823637717140406;0,738933592199905;-0,0646050784329713;0,5928112785049992;0,0;0,0;0,0;0,0
0,04387939698492462;0,07632542011308005;0,5440633935391759;-20,907290928513902;0,5824109346180122;-0,040258374269369165;48,47195231844315;-117,01744036429099;-528,6622282221393;-15871,430047677792;-0,07268835855180314;-0,40034140279561325;-14,29148788521255;0,6239090187439714;0,2393278004589336;84,60961961542245;-114,92893231872517;-48,349274576222456;-10327,50086097886;0,17417859006457714;-0,11868492948078846;-5,1850640807639765;0,6720207092936763;-2,4456576788817195;23887,309064833607;-109,85470731188605;-545,6610365402414;-139305,70402994298;-0,16788874365784406;0,027245492051978445;10,205252346401243;0,698643744661204;0,6700068782467151;274,0777471544827;-111,8068629841442;-530,6049259760226;-18244,04854456126;0,01593810208262072;0,359331430805737;0,3663083165344633;-0,0006622790152650958;-0,019727731058050067;-0,5090279010657026;0,040242905228548106;0,6701978013786083;-10,85825429687258;-0,008894818487730981;-0,18142895082063465;1,5775614203654131;-0,03987326926712974;-0,7911397498377541;-0,8889075283173165;-0,03990018011225437;-0,8091285598001249;6,5748937322704135;-0,5727091066454415;0,008919775072345886;0,6600886046417288;0,6191652447138014;0,19112430933148095;0,7016911508051874;-0,4752621745178329;-0,26862150164981957;0,4478298560126298;0,733762729164457;-0,06698493190508457;0,6215203836670138;0,0;0,0;0,0;0,0
0,04506532663316583;0,07689694915073475;0,5186210741245125;-19,54595760949538;0,5829108456836944;0,012833037768075945;43,20793483615538;-118,01940996169552;-542,2559880801273;-8223,816828257184;-0,0733928979953015;-0,41280398323288037;-7,865344663418846;0,6251108934242711;0,26242694719209697;110,77073655342461;-115,91257348668519;-273,79221684822585;-100972,7254645021;0,17404347681309443;-0,11772876273268207;1,1446939157664184;0,6738221748206766;54,79646440440765;30761,303355768483;-125,34699863050581;-626,1546635815687;-65139,59754680045;-0,16761210460494042;0,046244755356085576;9,188466996814656;0,7006120176204395;4,0387066812805585;-2638,9001674646756;-112,91331844990343;-543,2971542538328;-14321,517754272976;0,01636403471318314;0,35984053098922086;0,43641470831630985;-0,0006854239381664283;-0,020392493538976174;-0,529641607132912;0,04104312758183766;0,6573871696328432;-10,710274865243695;-0,009158950635351427;-0,18075139108579136;0,29818389704971454;-0,04104047744806614;-0,7993991723922518;-5,306851779463547;-0,04082012142345788;-0,795483545811614;9,627672020794332;-0,5744593879815448;0,008333787889084458;0,6775997633584943;0,6202587350990446;0,19200054050039056;0,7213919217106249;-0,46093700073318006;-0,2658160098563019;0,4639940643202598;0,727551992267698;-0,06576685934416705;0,6389438009295194;0,0;0,0;0,0;0,0
0,046251256281407034;0,0770567158588454;0,5015054613743253;-18,17318686964216;0,5832031455320513;0,047674621026621025;39,62333047195717;-118,53578328032373;-543,754581943833;-7254,963494731282;-0,07376903803503006;-0,4158122209505372;-2,6269229460131713;0,6257065610706485;0,40434785065519635;1,6872568778961812;-116,4426661939532;-559,1568814079335;-121217,62266951989;0,17404054453148032;-0,11562137932506003;3,494655913890948;0,6746908967830746;108,36571218437241;23826,194519194436;-100,28978030813855;-579,1953963518614;-6484,939271782626;-0,1673957042943514;0,0534435657731768;11,07195476075749;0,7016051184883096;-1,803415540344516;2472,2571434196716;-113,40449109121782;-552,7881005150671;-16309,33831297707;0,016790514685156268;0,36040849841545824;0,519328809990667;-0,0007093326938210713;-0,021046910924535783;-0,5089067146885319;0,0418280483085955;0,6447930016689056;-10,588676864422956;-0,00925444154734601;-0,18138262907644123;-0,45110496568593084;-0,041555135271199584;-0,8057878674274463;-8,23782475058851;-0,04125516263412638;-0,796403197313304;3,636007607287047;-0,5765969900748457;0,010837860650270249;0,6890616343037257;0,6184759903776023;0,19481045490476098;0,7358039246744027;-0,4477502866021475;-0,2621498311365036;0,47811040819017697;0,7207211704819007;-0,06240100915303905;0,6496243008728583;0,0;0,0;0,0;0,0
0,04743718592964824;0,07732528930205891;0,48249682075455796;-22,698869408661317;0,5835529944391045;0,09332124855508424;48,69148659028094;-119,18018734059869;-546,3708052639191;-16512,44188685684;-0,07423554443374449;-0,41570916178675654;-1,7497863894339036;0,626460392039901;0,6018532118649645;-115,75026581136672;-117,118545922454;-558,4423681116921;-61053,66530680832;0,17408111652757877;-0,11064922326183457;7,110255512789309;0,675799226737127;111,13816325561173;8205,810328085428;-25,929676561596775;-597,1277191079394;-15074,887387816307;-0,1671612450303434;0,054657653166233375;23,129246760110476;0,7029041520908401;-10,252889243850339;20367,236067406357;-114,17068538912821;-576,8998026666092;-24280,32169479124;0,017217715828479904;0,3610147949607949;0,6408209052387314;-0,0007340285777375486;-0,021610630955815037;-0,46022410892999793;0,04259796563579874;0,632362026402993;-10,555490873427498;-0,009421566343748725;-0,18227166909000755;-0,6292283335556215;-0,042349765340855404;-0,8125732092383614;-11,484783334679163;-0,04183676858923326;-0,7916111248790403;3,6557618672375924;-0,5787564698817615;0,013533070625934021;0,7001477996968996;0,6165157205533099;0,19774025534500553;0,7498859653907746;-0,43463406731755694;-0,2584286971742164;0,4920940493118401;0,7138499703872676;-0,058901301497655885;0,6598862324535556;0,0;0,0;0,0;0,0
0,048623115577889446;0,07795498599320136;0,4499697054243589;-26,716486345375102;0,5841926346546267;0,16381976871423085;53,83609801019122;-120,59234939600059;-577,0680829386102;-23456,49607838115;-0,07516404985486216;-0,41706834980535223;-5,135869255756837;0,6281332842537595;-0,02113527777030874;533,1846750388637;-118,47920048374158;-583,3929818875067;26733,83696566507;0,17410254798965769;-0,10055538990242352;13,193913642930925;0,678091608362533;105,75104790967444;35,64007157504188;-30,50414851097634;-642,4811570316899;-33532,9968076275;-0,16660205564382416;0,09718609603253746;29,147187465230115;0,7055555341147633;32,31007599684884;34455,97411314736;-115,66554046531103;-614,6543710815522;-28013,18832737132;0,017645615494356618;0,3618503577484592;0,795004246817268;-0,0007594264499892006;-0,02212124649120406;-0,40480665144249034;0,04335255319955198;0,6198685057105777;-10,617952363021596;-0,009714744843330476;-0,18299637625063248;-0,5954307316129525;-0,04411326068723211;-0,8355419902640091;-1,5855160160407835;-0,042930184713823365;-0,7848617239746272;4,679464851340605;-0,5809431110660099;0,016195877413954993;0,7113015057795151;0,6145780462874031;0,20065821112374455;0,764048087660976;-0,421494466527041;-0,25473914612714277;0,5061143947283255;0,7069895651782541;-0,05542272297216562;0,6702280163763223;0,0;0,0;0,0;0,0
0,04980904522613065;0,0787852013001257;0,4100370337396887;-25,6433131031337;0,5850205195350782;0,24095215259129185;46,51347454035527;-122,41767081499975;-622,4804133921645;-21857,06459491416;-0,07636875194590059;-0,42494040548067796;-9,332253732734143;0,6304073888106934;0,24542484905638307;426,3182527720189;-120,21197004695455;-622,1696003016705;108831,14519476212;0,17414014971384645;-0,08164219480553868;18,654599240312137;0,6810664510439844;110,90596268273882;1711,7439185074913;-107,90632342489947;-684,2982238110775;-32500,797950872504;-0,16588683594557305;0,15895132490270242;22,91000387425681;0,7090226061699394;106,64451932987893;33885,49505187943;-117,48494221553324;-653,5869147066726;-22434,987210023435;0,018074362812986355;0,36294233110495394;0,9559449893105854;-0,000785453603877984;-0,02258334269556632;-0,34326571910239717;0,04409221799228598;0,6072023772176922;-10,754603503967306;-0,0100290300354885;-0,18357418150053;-0,5002287046993775;-0,0463767569680599;-0,84474088478745;-5,794743061685754;-0,04425795937461025;-0,7795633194177563;4,03543864582004;-0,5831037710086493;0,018897018997579382;0,7223762780026091;0,6126112754161936;0,20359127816737113;0,7781209440294131;-0,4083800503291887;-0,2510179080485081;0,5200956462225947;0,7001167182763535;-0,051918830478312555;0,6804773875140699;0,0;0,0;0,0;0,0
0,05099497487437186;0,07937285213498356;0,38258663726686926;-18,877890393549006;0,5856746658151902;0,28513378906801506;31,098311927753656;-123,55954831342297;-638,7872775149762;-14449,796633692327;-0,07723875378113311;-0,44241391513831996;-9,623857216497575;0,6321266301275092;3,591884578209064;-2405,655333738795;-121,37355279206724;-361,86895788298085;167136,48487362015;0,1742844025914893;-0,051862699525439454;18,18690248067818;0,6831523139524049;113,9815221878691;2860,70981663591;-131,43961849403715;-723,3638424987088;-22434,066307668414;-0,16555589952930086;0,1649964152942756;11,25211993341557;0,7115757517079275;133,9379048795235;18343,918079936153;-118,65058756551993;-675,0311681348868;-11757,144284726863;0,018504277989298837;0,3641596126130344;1,0872622068350213;-0,0008120583180956947;-0,022957547009780952;-0,260243432096197;0,044817832724450446;0,5943727741318298;-10,929748549422097;-0,010172030015364899;-0,1842465657726574;-0,24008415146802609;-0,04784085059335663;-0,8021621612094024;-59,09971418539046;-0,045099991357078865;-0,775689622459738;3,496837045916267;-0,5851566984793792;0,021634787768918334;0,7333640943329872;0,6106360015104866;0,20651659517667806;0,7920427292069143;-0,39531945788491013;-0,2472072976232627;0,5339965212514987;0,6932189130952239;-0,0483936613318797;0,6906138708243716;0,0;0,0;0,0;0,0
0,052180904522613064;0,07974118029645393;0,3678948843532183;-10,851711273728679;0,5861074018269147;0,30256994858250985;25,246851860506748;-124,1759050261799;-640,7955934447077;-11115,397725446033;-0,07775801341343402;-0,45547073005383937;-10,95032836287319;0,6332542285224039;-1,0690788598614676;1688,1685633853212;-122,06129258152954;-25,681554091877885;114055,65320836027;0,17440814308015967;-0,02829870397342154;15,050082094095037;0,6844512628878158;115,63815633360078;2491,020699385343;-117,36198652470117;-744,8782619597757;-15578,837440395964;-0,16548811235382047;0,15219180908627528;6,379158938908201;0,7131874982374969;129,24890897252627;4256,069752691518;-119,33083369201604;-675,1476962197789;-21053,56311750998;0,018935591606231626;0,36550744677500696;1,1817041294403139;-0,0008391634835801702;-0,023213222223468204;-0,16826613454400272;0,04552833168355564;0,5813226609830731;-11,146466761712663;-0,0102064932017911;-0,18453170971562566;0,3524952007558201;-0,048666861835557386;-0,9068120620704685;13,418082785680207;-0,04556290351301353;-0,7720551575968493;3,5901866162092784;-0,5874843458796127;0,02426720811555868;0,7445982846974298;0,60869366587779;0,20945577683440517;0,8063700867580388;-0,3821171497716802;-0,2436277491017904;0,5481083115419775;0,6863871340142773;-0,044931102711473055;0,7010655710046414;0,0;0,0;0,0;0,0
0,05336683417085427;0,0801581561758957;0,3595839168407459;-5,082296201243784;0,5866343914704175;0,3229771160920605;39,79083974962478;-124,9297075676037;-656,6027810959044;-17500,396273806266;-0,07827826719026743;-0,4589347369540863;-17,778325311734108;0,6344825168496658;-10,381632780889875;18271,401715344815;-122,83082628711942;41,1326996969584;-76463,24623450052;0,17440199060988723;-0,021344789231361967;13,89475151025491;0,6859954967061342;119,69493023056228;3665,0980948144215;-117,44775626566198;-746,4100816826004;-18924,16330869483;-0,16535323786543782;0,17270975709840009;13,634238240645352;0,7148482925685279;131,75485276844879;4811,33293637712;-120,15798127185714;-684,1070460663741;-42604,18069951587;0,019368482876632665;0,3669970157271424;1,241603685927894;-0,0008666458676942282;-0,023344161858504554;-0,08813186853127732;0,0462226406893059;0,567975143098106;-11,404541344405141;-0,010244255369215135;-0,18374988864113495;1,3658281024882175;-0,049607331500862106;-1,0956791654877707;160,16931061720055;-0,04610084350656089;-0,767513279775728;4,057526022903167;-0,589972499113783;0,026842949814916087;0,7559663930744837;0,6067659902436644;0,21240579580728966;0,8209260933333172;-0,3688335534900593;-0,24018157870946036;0,562340872029561;0,6795932741389215;-0,04150172089031972;0,7116903003807096;0,0;0,0;0,0;0,0
0,054552763819095476;0,08100508954057763;0,35527118077297354;2,096792630561355;0,5881201298212321;0,38612726579624207;55,3780303051517;-126,41881199545647;-686,3512713399176;-21798,90596746867;-0,07942907993167216;-0,48614266146685864;-23,468425678993697;0,637112065338487;26,90584695088408;30898,45482180997;-124,2783075904985;-244,61767199217624;-206345,7797102435;0,17442246745851028;-0,0057329370000855405;13,976151591515928;0,6893405042522737;123,51254228687928;9177,133702557316;-122,49218496217956;-772,5627890960831;-25671,625624838875;-0,16499167179578533;0,20113116582220875;16,342829295047157;0,7182576748058982;143,0664236168613;8412,437152042816;-121,71217809047177;-792,8526652008511;30006,681014478745;0,01980309636137965;0,368511036482474;1,2631880088615006;-0,0008942952632697554;-0,023395234026671426;-0,03184284856958684;0,04690162823432465;0,5542787595540343;-11,654710103427458;-0,010257377710544179;-0,18147770767464644;2,631998118910819;-0,05134879201260781;-0,4813871421804515;-388,13551610695055;-0,04716166488479692;-0,7621044209203436;4,1211716243532726;-0,590778620935125;0,030032117462812657;0,765888043166534;0,6046655846411534;0,2152540528861861;0,8330556484041083;-0,35640311152157744;-0,23533025232027946;0,575303503492513;0,6724035331744319;-0,0377105839439717;0,7204547837062962;0,0;0,0;0,0;0,0
0,05573869346733668;0,08213894255139731;0,3596497263027897;10,648656552909392;0,5902988591139394;0,48015679839595526;59,32740402512026;-128,33770379957684;-718,0714040862927;-19470,791297283882;-0,08102472782714437;-0,5326866482341027;-22,35739617875639;0,6407135365048169;96,75009164271235;31089,190913024453;-126,11974115440388;-667,4932387908327;-185120,52157273362;0,17450656595511022;0,020668846753668913;12,720079430646564;0,6938079445373988;134,2377364546757;9633,680404286533;-123,96478958603633;-824,6975442824283;-24384,57690432927;-0,16449910110436872;0,21731909063136617;8,670148232591472;0,7228010672155152;156,52528165287856;7842,473085089602;-123,67619073073237;-816,5328040312257;151331,0342537879;0,020239502225447927;0,3699966498842599;1,2374103109824373;-0,0009219917957066115;-0,023403401771808708;0,005077760150514893;0,047565076707024846;0,5402738596511694;-11,837159637993855;-0,010228459030830047;-0,17753914460113918;3,9926470549611808;-0,05353797258123158;-0,46074275957290467;-423,2054999604534;-0,04852852253520844;-0,7568519637532226;3,555763049263868;-0,5883251523170056;0,03440718299140952;0,773013601235412;0,6022340642818851;0,21790259579879728;0,8404897231580362;-0,34562593463050006;-0,22775796141636415;0,585810209298917;0,6644486176507653;-0,033220300161485944;0,7256208328854095;0,0;0,0;0,0;0,0
0,05692462311557789;0,08291778576427389;0,3816001046189681;15,711383730036625;0,5917834250899505;0,5441283052949185;52,51545448499091;-129,57997601139365;-734,880293998645;-16446,478179143844;-0,08208136491080857;-0,552833376800502;-13,323065921984204;0,6431807628318654;119,2113221078718;22310,325998473458;-127,27656868220866;-797,4777176512421;-82997,96283844976;0,17453279943434155;0,03222332289122836;7,27949323580776;0,6966256094361856;161,61596297947244;-12230,775836805158;-124,48035640192981;-852,8042461205217;-6271,131326148197;-0,16417516224439682;0,22070402379287854;-0,14492138818772066;0,7256482414056558;164,0427561668839;5040,186816800521;-124,93960761814883;-381,69072090320657;122078,36772201843;0,020677697246017496;0,37147488823488506;1,1526810278359674;-0,000949728067537708;-0,02338396528876317;0,04103583091164089;0,04821146694356792;0,5261019636095079;-11,896359280558054;-0,010173765802358873;-0,17198150693453612;5,349020476094048;-0,05489946797288234;-3,519659558464561;2206,8737071587693;-0,04938565320581683;-0,7533559330369388;2,8561962339221414;-0,5819649829681285;0,0402027364558514;0,7767909661192305;0,5994073827006176;0,22031027095255618;0,842299984657631;-0,33683036476048916;-0,21692585113375895;0,5933783454233416;0,6555790904990894;-0,02789249880263509;0,726475786954929;0,0;0,0;0,0;0,0
0,058110552763819094;0,08343331718379421;0,4075283236652681;15,994372426216453;0,5928184496933327;0,5882853505954215;44,42076343114174;-130,4123319722001;-747,5212589212017;-15030,11170468316;-0,08271679979397578;-0,5521390509130406;-7,60680686744576;0,6449020464045555;121,80154692123902;3848,917445629702;-128,03662382584446;-728,4380463417403;-7360,283434838838;0,17451944598954358;0,03183217993624786;1,0947722327281346;0,6984505861401925;142,84029410146192;-31174,695511721056;-125,97251450373118;-837,818203756251;-4675,881511473097;-0,16396150977346605;0,21434610015331476;-5,139379726992653;0,7273806758790488;166,45779599439706;2853,1934654623496;-125,7921125813041;-84,93420192556782;-28870,300667804324;0,021117693173445532;0,3728206013897562;1,014475566352792;-0,0009774881930720992;-0,023318561823278055;0,07432974534239953;0,04884100096691179;0,5119464936576444;-11,835002521506086;-0,010094736835570687;-0,16483150597913757;6,643200796517013;-0,055748189928266495;0,05118575196380476;-908,3841983950409;-0,049908223009953234;-0,75090709660242;2,740341548242843;-0,5737686007550993;0,046670211146660714;0,7789846598839352;0,596386946653115;0,2226094474077917;0,8414538130499069;-0,3289635123178503;-0,2045549712492173;0,5995497679443175;0,6462749943261047;-0,02216837645072753;0,7252950263021368;0,0;0,0;0,0;0,0
0,0592964824120603;0,08399202259161447;0,421433713623021;12,81466311058493;0,5940824146317334;0,6437550808540211;44,95068192296229;-131,44531809073146;-770,5407058780211;-14423,439828160994;-0,08340565048250048;-0,5577663174821514;-14,687446301785373;0,646938384662671;143,46190349230426;-20076,237404713407;-129,02544463380906;-727,5172446426019;-16603,6248490957;0,1745236890569764;0,031815616930630564;-1,7174115542992994;0,7008012699345343;45,732323831808515;-15926,472332888936;-128,07860050038892;-811,4636833180826;-27832,096939666328;-0,16370282108957432;0,2038493524890581;-5,064791691674435;0,729537189761668;168,41123321239627;3137,523204076801;-126,85486695857804;-523,5429854949329;-163018,9539371424;0,021559381443148198;0,3739015528014181;0,8412545021723301;-0,0010052197564392575;-0,02319486363679273;0,09415058380918755;0,04945425007966729;0,4979689942764871;-11,690833197173841;-0,009995046281666333;-0,15614635551261208;7,8509528417136;-0,05680989903393055;9,774377937281727;-16236,88929702697;-0,050543635038397365;-0,7477978482183647;3,6317275054102733;-0,566156179824583;0,052928403212708766;0,781671311430092;0,5934197169956558;0,2249479430298354;0,8414386294765807;-0,32079906527092783;-0,1926665602007982;0,6061492433763456;0,6371041081792483;-0,01656755130273484;0,7247518794821588;0,0;0,0;0,0;0,0
0,060482412060301506;0,08446256754570164;0,432546119476245;9,782513584721594;0,5951513036526902;0,699191860619939;53,71045516360776;-132,30908988628292;-790,0179049461666;-10563,624352597491;-0,08406406651656001;-0,5846651781408175;-21,39200373777646;0,648700189257075;101,21874346861034;-23985,32341393824;-129,87907657334918;-811,3315478912829;18048,946863254103;0,1745076066325643;0,02984492567994802;-4,027020056688775;0,7027444519508038;31,67867135109206;20700,99691546538;-125,62521311634335;-902,2539293242443;48006,69239713809;-0,16347733778931417;0,19849825368004104;-2,6263065062177375;0,7315055213222214;172,98245140991327;4118,735625306098;-127,69648705669948;-899,9352939224274;-154469,0970144961;0,02200227683963538;0,3747788966847538;0,6656533488935682;-0,00103278369019583;-0,023065124364277087;0,09257953845458265;0,05005036279927471;0,4842107036121374;-11,522817013287439;-0,009906868692144147;-0,14611806246770356;8,995531158054716;-0,05771212312789292;-21,740542417457387;-29224,303482259038;-0,05110110373038113;-0,7427089376731009;4,797342491121906;-0,5587633916798574;0,05908633852292986;0,784593138318063;0,5905126015642338;0,22727652603204018;0,8418028296229763;-0,3125379672659653;-0,1809926832517006;0,6129901242242173;0,6280081976097043;-0,011026544839279293;0,7244956768863248;0,0;0,0;0,0;0,0
0,06166834170854271;0,08490565704322274;0,44562862762093125;7,229219304533217;0,5961986173159702;0,7590609779582091;62,10625154851331;-133,17442193334273;-796,829865904952;-3804,8890693620365;-0,08486557689067353;-0,6233535591259709;-18,476723705184586;0,6506426467586218;19,066739970257903;-883,935079170712;-130,7479431386523;-826,2307853934875;139009,50004209828;0,17443271564362853;0,023057412187328825;-7,559016104866762;0,7045461109031369;138,63921154301931;43422,30581802695;-125,56277834216914;-932,5820356805934;191758,3975465352;-0,1632390068995601;0,1999979188533845;-0,2852432349149504;0,7336645763130154;179,7632962630335;4006,4197095998948;-128,55223230716172;-835,8475322914773;-29416,145417268315;0,022446385850777996;0,3754860967399551;0,5097965584500381;-0,00106015834255188;-0,022965494836499664;0,07832610997365189;0,05062968953569706;0,4706584059233557;-11,347647423972587;-0,009787262404404199;-0,13482253201489003;10,1090485537697;-0,05866339144102417;-88,65538108448939;-28632,200618908697;-0,05171145501210937;-0,7357661585313554;5,479879515986472;-0,5511904733204135;0,06532010540618771;0,7873368495351506;0,5875683149963118;0,22960672825757567;0,8418758858281351;-0,30435971232968256;-0,16915338230476493;0,6196571121733848;0,6188580770978578;-0,005440489771866414;0,7240177332671601;0,0;0,0;0,0;0,0
0,06285427135678393;0,08565993405983509;0,4537922141603205;1,1504792398358403;0,5982130342069718;0,8506048421983713;55,366793410298264;-134,94661858961888;-795,1967704326823;-245,81023329524302;-0,08631502046183212;-0,6398000530596711;-7,763895544881449;0,6545470835926812;62,44198627692123;27361,7947916221;-132,49257660240508;-510,3945340643541;233479,53002206027;0,17429093537757817;0,011546785327278705;-10,848871412539749;0,7081890098960117;209,6632130533949;8329,214717966996;-144,37454070663904;-426,20549994737326;168947,49672612513;-0,16277537751768806;0,20040190721974352;0,825092496238958;0,7377671722339489;184,51487316184785;2097,694868067606;-130,51282995309484;-784,5605481472014;16574,979091239406;0,02289214536846576;0,3759848111492969;0,38089194245957353;-0,0010874689854451398;-0,022892405015647915;0,07688704632959009;0,05119403921941496;0,45727451533124497;-11,1342983784075;-0,009518609889653465;-0,12216728300018663;11,20957499301551;-0,06066237074197741;-114,45393761789589;-14108,092371873823;-0,05294275128016156;-0,7287709320403839;5,261620701546557;-0,543640086275017;0,07162907534744217;0,7899074545345404;0,5844717332209393;0,23203595424848822;0,8417230390076784;-0,2961081338584332;-0,1572065557879799;0,6260300984106417;0,6096166512539185;0,00019273693092957927;0,7233814180949356;0,0;0,0;0,0;0,0
0,06404020100502512;0,08636653747319768;0,45130424020743204;-8,70382279797341;0,6001411005163855;0,927678521071597;35,89301448566618;-136,69458761951668;-792,874069875354;409,1217227293345;-0,08765073596091898;-0,6346212429407139;3,095082782404446;0,6583131094863794;163,80079691649215;36991,95455818824;-134,20276663089115;-65,02729726362023;187053,42807203197;0,17415257729914968;-0,0036914150796291995;-11,983161200453992;0,7117807451073057;173,55446234219968;-38281,81173787245;-130,54495128732165;-9,281734631029297;-8555,181593194236;-0,16233922682316632;0,20029620680590962;0,2476895106263585;0,7416369649858681;185,21449055050246;-52,57174534671369;-132,2844825278112;-827,1952116730868;-8188,773419899325;0,023337235335462173;0,3763336063065047;0,3041355289220743;-0,0011146150238792796;-0,022807097779013318;0,07829315662917356;0,0517412193593012;0,4441758308935696;-10,959437095048418;-0,009251522275771654;-0,10817478047756851;12,181103361761963;-0,06263730283490848;-103,61156996883656;-692,8212660381574;-0,05414483208449958;-0,7228492038459664;4,613217885575965;-0,5360859825439032;0,07778761127541427;0,7928250626633575;0,5816560726998709;0,234286089935549;0,8420339549046483;-0,28797125183773487;-0,1454854065663189;0,6329651680909558;0,6005501501978897;0,005732147077365573;0,7230755931687961;0,0;0,0;0,0;0,0
0,06522613065326632;0,08652620904500471;0,43442140676857566;-19,7240537617006;0,6006063646868037;0,9343365611308964;15,576701881620355;-137,16956734689856;-795,2405518597327;1058,8760707374859;-0,08796938696599355;-0,6253717310252921;6,434472607339589;0,659255569050362;176,8675081610143;16571,57877406047;-134,67388520614927;109,10996941573339;-37801,28475903487;0,17408508072028978;-0,019971604858717254;-10,095989660778724;0,7127209971166757;56,10375663448746;-26873,385216142487;-44,16256125266691;-474,1449078628331;-181894,942016546;-0,16225701165722373;0,20249271048466314;-1,6972143823853814;0,7425427658717413;182,523702172844;-564,1278109291396;-132,44348430004646;-841,0392196271042;-6456,746202828841;0,023780967817322148;0,37664322563120306;0,2981434089674266;-0,0011415496911929193;-0,0226852226972137;0,056942360402142816;0,05227046268730689;0,43141571400183915;-10,872750181805253;-0,009175404267387898;-0,09304052320471656;12,86689347984486;-0,06317281374280981;-99,46816164040978;-1909,8442670579714;-0,05447184531506649;-0,718219235690385;4,321603459466296;-0,5284865931632833;0,08383596211125949;0,7959962617292535;0,5790704867257821;0,23638477607908637;0,8426720027187213;-0,27995117849919887;-0,13391827346211804;0,6403381887163246;0,5916193834500038;0,011202171513458072;0,7229987724027386;0,0;0,0;0,0;0,0
0,06641206030150754;0,08657462132128295;0,40282435970482455;-27,21630550235159;0,6012801417855721;0,9299129639974959;4,842202525702762;-137,76746335210197;-793,8979048841136;353,1541745523334;-0,0884440366819508;-0,6173998303120648;4,864023597387167;0,6605580995023368;160,3723224610993;-1233,9479401387505;-135,29345357917762;-152,4363729493973;-220572,70955754136;0,17399254361634334;-0,03010910602373424;-8,552810981401128;0,7138781517087037;31,166375142753353;12443,44686520226;-23,684377267203697;-954,5975071689787;-189881,2351415253;-0,1621631451386022;0,1994698610236165;-3,096259352074846;0,7438297077218237;181,7027228895936;-785,5552161563404;-133,94979369806538;-829,9108433163588;5596,01387494886;0,02423374932182471;0,37700581197024;0,31954903744228363;-0,0011688720514867659;-0,022619394169071532;0,005155043929425708;0,052793948239747195;0,41851777234820436;-10,602035006496065;-0,009070594967398595;-0,07732662071310482;13,233509874290867;-0,0638817567440941;-111,98551162554243;3498,78920409617;-0,05487957185573619;-0,713424668233782;4,558220663488009;-0,5212800150012363;0,0911825260070988;0,7961802521443071;0,5738530876859218;0,24020295888668589;0,8394220285372983;-0,2706617458507734;-0,12050631279957026;0,6426429038158051;0,5811098567706778;0,017485539275631873;0,7201826816241895;0,0;0,0;0,0;0,0
0,06759798994974875;0,08678081956476584;0,36303359702898885;-30,106040048912146;0,6029892556265476;0,9491237182748069;4,459630715580032;-139,21634710969306;-788,8931059915056;-1354,9095859243064;-0,08961756205219888;-0,6127981611900699;2,2081959686731283;0,6637879917268588;167,13701787340375;655,6614055453063;-136,74995125581572;-666,4655961321236;-221117,1804505047;0,17383957138233463;-0,03517316931744899;-9,34264581585497;0,7167788951367899;140,21253283354287;37456,209618501875;-110,43090020203263;-912,3168036739246;-38821,28208185936;-0,16185203017236582;0,19084008297046573;-2,8090518224080983;0,7471121723324611;183,1869643132041;-1461,567925355044;-135,94015577691863;-817,6695302651764;6173,469734613887;0,02468447094662824;0,3774321038835659;0,32140701408969236;-0,0011959476119231273;-0,02266757298434603;-0,060412416314145664;0,05329970998403011;0,40571811834821;-9,80299224174573;-0,008832060504701067;-0,06147746493446872;13,319064581260148;-0,06558041669635;-117,56739612866286;20626,35604138557;-0,0558618249979504;-0,7075358595425011;5,14043945393483;-0,5145826478565521;0,10018529221170108;0,792555404610362;0,5652745768834833;0,24621701962397627;0,8312175868864569;-0,2597477324019041;-0,10475151240906518;0,6384780950462666;0,5685845467343995;0,024804373299320913;0,7138773405167262;0,0;0,0;0,0;0,0
0,06878391959798995;0,0868684188387995;0,3288264927343845;-33,137150192275655;0,6043758915490931;0,95431365515882;2,1797461918092016;-140,43194866297284;-795,2273707274101;-75,11230093613956;-0,09047372816616135;-0,6126540763223108;0,534001525057602;0,6663227909888959;173,23542240166773;2557,626179235008;-137,9023321618086;-863,2882669110157;-109161,91237858986;0,1737247866621951;-0,048601792554218114;-10,868894065198454;0,719256462883017;192,60683068484624;25373,248861749824;-152,72339119530952;-828,1170108283649;33817,32585436093;-0,16157350636219867;0,18908554323059393;-1,4291223156083714;0,7495961322300799;179,6477813922773;-1497,6125274601047;-132,09116586472135;-813,5274071936484;3674,1915343122523;0,025086785253179606;0,377821354965696;0,276793753238311;-0,001220113302780088;-0,022794370428388687;-0,09660642666157183;0,05373662736012936;0,3944606328284634;-8,218934521963636;-0,008649016287557553;-0,04564173732137541;13,219166980700903;-0,06697244783725759;-63,61208431326773;20870,79954841785;-0,05667152557493676;-0,7009648025330925;5,604716595013069;-0,507902805946148;0,109275496875078;0,7887350323264362;0,5565265583162141;0,25233836395270176;0,8227585889805906;-0,24875774173598195;-0,08889443661565251;0,6339817406348132;0,5559533515501165;0,03217133595892075;0,7073930149213783;0,0;0,0;0,0;0,0
0,06996984924623115;0,08677898478615126;0,29287987520633924;-37,946748610443926;0,6052845503883537;0,9455794033769354;-4,482685914961505;-141,2164607389783;-801,1501934532893;4135,740418764687;-0,09094133120796477;-0,6140620512716295;0,708894379249009;0,6678820907102441;172,05153588594732;-237,47956675869386;-138,6322450570778;-774,1313639151126;3939,4772929989344;0,17361484783971237;-0,06687269410047343;-10,18512960186845;0,7209283565744301;170,21382251403716;-2076,1685205674603;-137,73756551355388;-841,3733599193486;9309,52479967502;-0,16138351410693935;0,19194306720061488;-0,13083056713456742;0,7510848351212449;175,13751003005683;-1573,729381058484;-136,3690521851674;-813,9911546557128;6400,031672956781;0,02540057674990514;0,3781112022298037;0,2118880541135302;-0,001239006500941853;-0,022936177412809663;-0,10335259594641025;0,05406721428451383;0,38581791199331494;-6,6197136786572495;-0,008539111294237098;-0,029997845291175856;12,942945413436686;-0,06789445967995913;-10,890338802727683;430,6619699822468;-0,0572141770427591;-0,6940788272864395;5,932420016503048;-0,5011355975128424;0,11803857358308392;0,7856587175329119;0,548429634930469;0,2580380609274524;0,815266837026507;-0,23807387937063607;-0,07346753481249557;0,6307484013582295;0,5437196154430675;0,039343576781623896;0,7015900874388928;0,0;0,0;0,0;0,0
0,07115577889447236;0,08661304137068912;0,23993603031602556;-42,992051147329086;0,6063074788490234;0,9428891560659284;-10,871444409154265;-141,988400994409;-785,9035184833314;8239,741304839266;-0,09152320610170865;-0,6125028390866731;3,057593762583884;0,6696406472922823;170,6445947014053;-1896,3360284050411;-139,46299532918943;-754,2001874290432;22701,77094790478;0,17342818000044763;-0,07724308462615909;-5,346719818020807;0,7226119896801046;160,2856260349042;-6775,207116743076;-135,8617422899067;-840,0377320166104;-627,8796135105574;-0,16119151557874428;0,19012083876319305;0,09182658157011417;0,7529374271283291;177,14844757622623;-2601,8355317616247;-156,3852672860216;-807,0452971660596;14678,110748683697;0,02562109752888454;0,37829515231977107;0,1760681982037388;-0,0012523453508020094;-0,02304009005696293;-0,1092736134546588;0,05429410141978345;0,3797832783067061;-6,196956333188451;-0,008414633628993735;-0,014777196945363807;12,452937661748006;-0,06890655596105462;-55,96725037906247;-23055,370000797462;-0,05781036893749708;-0,6870032649003565;6,363924333215296;-0,4944090833774419;0,1268509729399067;0,7824537877091449;0,5402098637807267;0,2638263036197439;0,8076077945810369;-0,22731402537395934;-0,05791082118317225;0,6272952618783387;0,5314246807377289;0,04656480360841455;0,6956691697397689;0,0;0,0;0,0;0,0
0,07234170854271357;0,08641288561055765;0,18193110810436885;-43,22446845862124;0,6073515545403927;0,928488308257389;-12,253303742352417;-142,89106686247905;-768,9824279109806;8694,535901621375;-0,09216048689840879;-0,6075369875675661;8,519139260049945;0,6714465603166228;168,2766598340122;-2049,152773340911;-140,3647853220487;-764,9345696215933;-10432,854465144153;0,17327887839069292;-0,07817308673009928;-1,6879261577482023;0,7243899160811891;162,23162945957407;-1476,019783931784;-138,51358571981785;-830,6673134012456;5147,089131072842;-0,16093064125719128;0,1887159045954581;0,2661912127937529;0,7548486473596507;174,14355294715742;-1123,428387236598;-114,74762762824456;-777,0879038344526;2284,651509173155;0,025869625564682728;0,3784724626158022;0,17279814372588043;-0,0012674596423911681;-0,023157559024818055;-0,13835680601846417;0,05454449233093129;0,3730459012914826;-7,067298431780086;-0,008287504187469562;-0,0002861964105730636;11,76915985170978;-0,06999109229095404;-122,20042189187082;-17933,907136860442;-0,05843534996953654;-0,6792601737263618;6,9304339210654415;-0,4876219002581398;0,1357831858796825;0,7790348144577482;0,5318414364948184;0,269683140771402;0,799675064438544;-0,2165438460009069;-0,042421033274123846;0,6234869751724582;0,5189907580355977;0,053789207398624285;0,6895546266455927;0,0;0,0;0,0;0,0
0,07352763819095477;0,08619758468757983;0,13242379230746226;-38,146848678790306;0,6083047340755444;0,9004237743182684;-8,143430299085326;-143,78615873473046;-765,1238899377275;5807,009802923903;-0,09273304967750286;-0,5961477104399622;15,042709428024988;0,6730483019827133;164,5865834126209;-2007,6826011616333;-141,21067824314133;-756,20473131975;-16106,62249196757;0,1732186826425675;-0,07539667521839716;-2,839749838215322;0,7261574844069677;160,74667808906824;-1394,2978857707421;-136,5070721023239;-830,2606190150901;8245,64874831167;-0,16059995179559575;0,1914444989727208;1,7338810734749253;0,7564719373984572;165,72416337493445;115,58414349598024;-15,842314199303773;-755,9728203177575;-12389,530333893807;0,02623112160188101;0,3787046872635675;0,18244762652797222;-0,0012895254083247873;-0,023345901446532237;-0,19396672490039982;0,05490399629424948;0,3633271695437172;-8,614814293698467;-0,008181324659926796;0,013235563289108777;10,932609907400265;-0,07105160896356877;-126,31637953153151;16053,149514689901;-0,05902538032284608;-0,6705528540089888;7,552412817696204;-0,4808295934493632;0,144684282037787;0,7756836790674265;0,5235303152689107;0,2755037747474467;0,7918291178484692;-0,2057988904272103;-0,026962743047136216;0,6197926191712265;0,5065937392895542;0,06099808091605479;0,6835016273935262;0,0;0,0;0,0;0,0
0,07471356783919597;0,0859723733631259;0,09397249040192532;-36,3409419067906;0,6093386112683437;0,898681070053695;-5,057461477724671;-144,2658023014401;-762,0109465604077;6328,3197112485495;-0,09328463448392899;-0,5704184515549846;15,554755550190517;0,6746472621875276;163,18991613958784;-3071,382330537791;-141,97548180058018;-825,7703506226342;73954,1296893125;0,17310505740159254;-0,0810630327885887;-6,0487413069821345;0,7278470771418003;157,30398807092948;-2045,9983492795939;-153,18869892035292;-817,6811861182534;9642,010861878072;-0,16029180065604617;0,19339442402457502;5,30274885403684;0,7581647252972831;175,91005323256266;-13215,201044076171;-33,004868446669335;-838,1330680180075;67973,69141306113;0,026666725037369252;0,378938600800847;0,16947028378597645;-0,0013163045475645242;-0,023620669850651164;-0,24731898131158328;0,055326270094219636;0,3517306831386511;-9,5326309170164;-0,008092087675376315;0,025699148819656424;9,992588848414913;-0,07212945094903248;-61,562299531789506;21937,98856610037;-0,059613444751460104;-0,6611774144545838;8,066159506511374;-0,4743930709878141;0,15324186432455547;0,77283065334064;0,5154687187372337;0,2812980024865178;0,7846076056273668;-0,1948834259615617;-0,010870554859362046;0,6169034274272235;0,4945816431204918;0,06833223164832845;0,6778927929804658;0,0;0,0;0,0;0,0
0,07589949748743718;0,08571081823961998;0,055489399628623995;-39,12414501448283;0,6104275158392769;0,9097049356877812;-3,767964081718505;-145,2070286510715;-752,290761280451;9837,808659127093;-0,09386842093064916;-0,5452559569225521;10,207212029676905;0,676266557411312;160,62743510934465;-2417,0384836163075;-142,70235078975026;-765,0753260021439;172929,35053448103;0,1729040173662548;-0,09391300312082278;-8,805256893937523;0,729487973696096;154,5364268695963;-1465,7327652907147;-146,45485114208142;-797,76482388834;12058,629088910086;-0,15996024165348072;0,1990878502387295;9,871920893078094;0,7599420831750923;168,90668379588337;-36090,02333735688;-134,85168466989128;-793,8944581917506;171901,33629688094;0,027119158347832902;0,37912801477642194;0,13515990965691885;-0,0013443806550620437;-0,023956026349612948;-0,2903088865471103;0,055751703763071626;0,33980567098478365;-9,633286835403903;-0,008015066347914383;0,03700297860131179;8,987206959403194;-0,07321229432630214;-9,859304158281063;1777,6778722098284;-0,06020537259825146;-0,6513366131026407;8,42722539793771;-0,4675054200899876;0,16223834379213672;0,7693391002984376;0,5070842684167752;0,28712910170354083;0,776586276780193;-0,184182058059617;0,004419873009350072;0,6129816874343658;0,48207672316639294;0,07550872550851653;0,671714479432558;0,0;0,0;0,0;0,0
0,0770854271356784;0,08537519960963541;0,0018380377577710736;-41,946009953599656;0,6114259033176157;0,8913489661581241;-0,9033627605277932;-147,34516530942062;-736,0921519125812;10954,83416724828;-0,09451330894686981;-0,544794896962981;4,512697060382349;0,6777921343980443;152,56358052608726;2242,5240130325074;-143,46266425643242;-300,9289150998335;118646,57451857578;0,1726781931904981;-0,10426941852228126;-9,662278584904021;0,7311533557700459;153,97375032991357;-989,0373609634196;-58,18914496630171;-789,9400596907446;14933,407029442491;-0,15948653548080396;0,21722882155661602;13,343629146454974;0,76156355600389;86,58293802270185;-47957,716670907714;-158,30723112372468;-325,423894391017;130522,5902958877;0,027542028360386054;0,37925288142339736;0,10635650506491262;-0,0013709609888660794;-0,02431184560030549;-0,3313877252262415;0,056135400857838254;0,32877179855001626;-9,555375193092136;-0,007945516082624584;0,04704523260471938;7,948522493854649;-0,07424509925085819;-69,0302775958057;-2143,665267999272;-0,06078395490841773;-0,641122579413292;8,679289136523058;-0,45880289264975715;0,17296431155226716;0,7633535208028857;0,4974632113941961;0,2930719012186944;0,7654420941103551;-0,17436451137286668;0,016462392485387164;0,6050320621630139;0,46763312256560474;0,08203716333773116;0,6633131508577819;0,0;0,0;0,0;0,0
0,0782713567839196;0,08498934603095015;-0,05339953048915827;-42,39891218262502;0,6124639362215337;0,8826179754824516;2,736583073405912;-145,54944644759047;-721,6287982150245;9700,202241303843;-0,09515143416089462;-0,5484984338648211;1,0035745583228985;0,6792892179583562;159,51704535480468;-5780,230941242374;-144,24331699730104;-96,06172112884576;-29732,370473010236;0,17248066568538162;-0,11468550358392991;-9,135075593364506;0,7327741171241481;153,57633443281335;-1124,5147281873308;-19,319130785861155;-771,0612575153569;1818,6544994141009;-0,15896119648275361;0,23732403782895364;15,820436452733585;0,7631076851738665;2,128953032078521;-29622,011213750342;-139,28327484521975;-89,25006430089093;-26882,68448426663;0,027968371739575473;0,3793541062524982;0,08937465356354836;-0,0013981628657666176;-0,024721350814679268;-0,36967154425808013;0,05650801480918076;0,3177400427493127;-9,488097900195;-0,00787048589943332;0,05583339408452457;6,92487907313103;-0,07522023586614317;-98,99464976245723;3312,461845262937;-0,061359360608081184;-0,6306636352469674;8,814673381716922;-0,44879701046465903;0,18493084064767337;0,7555758838438852;0,48695382270297255;0,29909479896617086;0,7520573512089412;-0,1651801918452213;0,026172172747023856;0,5941933045170774;0,45179832739565484;0,08809912208411615;0,6533158176107373;0,0;0,0;0,0;0,0
0,0794572864321608;0,08456868029852746;-0,0985354117006513;-40,00663084865099;0,6136265064389929;0,908756481000369;5,089236112228713;-142,9446839117958;-713,8596818899641;7907,835257282045;-0,09575086206946294;-0,5400869219631144;0,5965637777916878;0,6808094042159083;170,88820088722807;-29382,083503530623;-145,00758833172836;-527,2919415495386;-144447,041340579;0,1723124125739387;-0,12740480106869445;-7,936866613034618;0,7342878764053887;151,52482360415163;-1804,8673044733696;-105,93835014620888;-750,2306641446482;-10383,166390458846;-0,15846617122024623;0,25250472891982584;17,245319285826024;0,7646647490742516;-6,484149140410956;15726,156059685472;-140,37772108693085;-498,85151368385334;-161643,73825689885;0,028422075372349812;0,37946376836451096;0,08245858665370968;-0,0014275182608081403;-0,025202827251974;-0,40569280924247036;0,056892833501940784;0,30606180489619905;-9,43672395180046;-0,007786660370804092;0,06342506405332403;5,946751273972609;-0,07615314212150048;-19,99001100491754;2897,933793111367;-0,06194580353365443;-0,6201130906761678;8,818839116153283;-0,43837031895085704;0,19729913930510773;0,7472177548350026;0,4761556179962212;0,3051451073053099;0,737946555447604;-0,15619967600971177;0,035130077518453866;0,5824185885556772;0,4355131006301284;0,09401108675924436;0,6428019359406475;0,0;0,0;0,0;0,0
0,08064321608040201;0,08407354512942954;-0,14426981786468532;-36,74170195446373;0,6147296563103941;0,9153579454351916;4,505731109427083;-160,245127160044;-706,0733949069952;7393,001318550181;-0,09641023162975154;-0,5404164807218597;2,8647706272643267;0,6822623634476122;103,33730845393346;-32171,530162986735;-145,7281996760949;-795,368238276298;-114043,43136109966;0,1720801732641235;-0,1360828936791156;-5,987249093753343;0,7357387507516324;148,7727323280516;-2399,2147884007113;-162,25327722609023;-816,3837489732178;66170,61031348749;-0,15792939605849343;0,27516435165329417;16,081054788304954;0,7661360302921614;58,218262641473025;41817,79076095915;-145,17370092443224;-851,4364867075018;-61099,65190059695;0,02885814390453488;0,37955752925716174;0,0809377165397307;-0,0014562619089640307;-0,02569917172180756;-0,44835209125477155;0,05725022553943267;0,2949117719058739;-9,34801150441398;-0,007715444829948736;0,06990455007310561;4,996835262969721;-0,07707266819216324;-23,245741903551178;-2104,4834313653623;-0,06254625817771503;-0,6096476623080649;8,698032509715105;-0,42789937485247537;0,20971413765740593;0,7388071514805437;0,46533057415481893;0,3111985389699883;0,7237564597174445;-0,1472475383487434;0,044010912860536947;0,5705401683081318;0,41917867651269847;0,09991146150047944;0,6322379541326857;0,0;0,0;0,0;0,0
0,08182914572864322;0,08352392089755811;-0,18992035889035436;-34,74165748169614;0,6157552825885779;0,9017986215386894;2,5259174896055288;-156,9792870200728;-696,0147674109267;8610,582993216443;-0,09709873740416392;-0,5445544980709812;5,531273533455488;0,6836938180066787;16,82272081290415;-7232,609308745428;-146,40406985769187;-699,8603034735995;2798,0503341561725;0,17177835174185466;-0,13999454871791683;-4,788612458414173;0,7371263463378082;145,77970874403607;-2527,3532044219673;-148,38021553758006;-778,3870822804562;169180,9000535328;-0,15734500439833146;0,29939092458863603;16,91235013633808;0,7674740970294258;139,0797380022808;33855,471549992944;-144,79686373696393;-743,1083640349626;159135,8479914413;0,029276049890066144;0,3796421669409991;0,07241917754767493;-0,0014844171988731261;-0,026231066567815497;-0,487498527914268;0,05757873493953164;0,2842914523569267;-9,296800283098287;-0,007669281624338542;0,07528809873251627;4,053092034206705;-0,07797476855530001;-98,17224170643883;-1499,022938804147;-0,06314478610882018;-0,5994067694864053;8,445649260894367;-0,4174909353209228;0,22206484516915534;0,7304746909406663;0,4545448181067605;0,3172476232987893;0,7096772971220591;-0,13825797066707182;0,053001415354540435;0,5588062737448887;0,4029130677194493;0,10582971314816056;0,621746363286853;0,0;0,0;0,0;0,0
0,08301507537688442;0,08297790854337737;-0,22584574618109646;-35,29387158590087;0,6168401952792402;0,9133911516873765;2,4128409790172505;-67,15492628039502;-685,8525021827248;10651,904097311894;-0,09768897892630043;-0,52813645417789;5,520865129070515;0,6852647379458103;66,31308936400585;21447,99791729563;-147,06674756878164;-645,8039554174842;30705,43013345907;0,17148097263042905;-0,14432515257721157;-6,4684002198992925;0,7384285308526439;142,46047050812234;-2245,4448539520813;-142,0726431624703;-332,24121132668347;128198,14406705588;-0,15674762774069514;0,3093189707349851;27,050371853563103;0,7687157945952681;156,12399490259722;10755,891994525467;-144,9925308827786;-252,32992602607527;149235,89061911742;0,02971586343315824;0,3797427857345391;0,039595463113962934;-0,0015145695147942642;-0,026867454202482096;-0,49561491428642096;0,05791209975268101;0,2731496840333675;-9,405042962066618;-0,007646108423777712;0,0795337539690006;3,1021710383243493;-0,07884325814454499;-64,25147110518137;15448,257522192314;-0,06372468423693671;-0,5895107622337129;8,06238833699385;-0,40707605913633355;0,23440644708030076;0,722104641825171;0,4437421408010035;0,32329655577453564;0,6955967405779594;-0,12924748684833043;0,061973861526361;0,547075718224819;0,3866466612008441;0,11173122374772686;0,611231994226743;0,0;0,0;0,0;0,0
0,08420100502512562;0,08236150203910743;-0,2653567794525492;-35,18570542990282;0,6179760521459334;0,9270686120963328;0,7007916203053746;-17,996658864827374;-672,4560805965059;11702,36596466707;-0,09826257071569597;-0,5148966126807392;4,161218471899129;0,686997191857758;150,45627794437138;28985,051461655636;-147,81048344163716;-660,7532310291635;4467,007232034888;0,17120432632663823;-0,15379296768476525;-7,708451332494662;0,7398075740561417;139,9863112420978;-2531,446727720717;-147,84897508186492;-82,33232204987921;-15305,182831049164;-0,15595084737337817;0,34207953379492867;35,727587022502306;0,770005360546559;136,11211435405306;-3913,7144332047187;-146,13985125835833;-21,507852740407078;-18952,437774830345;0,030175192008353075;0,37978682471151215;-0,024382038517214256;-0,0015467555151185857;-0,027493078774326555;-0,4491458667287177;0,0582471370252421;0,2616734457666877;-9,336559531322665;-0,007620724852244245;0,08263516180801478;2,178138433462325;-0,07977794707669586;6,319173445521956;24707,78306345024;-0,06436138196828624;-0,5801841608927024;7,679654765922457;-0,3966486196671068;0,24679953545182337;0,7137925645300551;0,43296428348707505;0,3293478844757712;0,6814684007244068;-0,12030746906929267;0,07094131071745796;0,5352698105267809;0,3703504429772474;0,11766686292804009;0,6007406155279936;0,0;0,0;0,0;0,0
0,08538693467336683;0,08169362341549151;-0,3159839405630059;-31,900759990534674;0,6190000980074739;0,9150550909249562;-4,826853375426906;-104,78927223871192;-655,0935020924057;10722,115499032236;-0,09885074865143975;-0,5241732927561651;3,9138707331382196;0,6886719514259886;148,04854595822144;8250,82319997446;-148,5952535493942;-658,2196803506736;2222,503998325662;0,17096708823702966;-0,1674020604145521;-6,518396621535567;0,7412218182020657;138,09238395114212;-3232,1203238933485;-148,802327550878;-479,40440394860497;-137181,1588845339;-0,15496260629306127;0,41473948028855134;32,89507747304284;0,7712978607505623;129,47316803741813;-1366,3537388620703;-146,8950725163264;-429,2361681902844;-145420,97180794133;0,03063155200393016;0,3797011868235363;-0,1116361759843056;-0,00157957500684275;-0,02797418027813313;-0,3493906753339546;0,058565792784982675;0,2505605827146381;-8,868520521980825;-0,007576894337176689;0,08464006527274288;1,3315923927850846;-0,08074259694815197;8,159550852556713;8654,310389395936;-0,06503153075106138;-0,5714574081005526;7,452507881484763;-0,38622490612442495;0,25920912670476215;0,7055234975587961;0,4222055579462074;0,3353994043813181;0,6673335945733618;-0,1113975214296853;0,07992406599158651;0,5234487560708276;0,3540501261555906;0,12362327872714166;0,5902733622081717;0,0;0,0;0,0;0,0
0,08657286432160805;0,08131979762540324;-0,35078500885525066;-28,715618648790485;0,6195436746655543;0,9026629288908786;-7,327040674650191;-169,13213404116257;-643,501226777068;9340,65456529446;-0,0991806400938917;-0,520547152545423;5,764662366267385;0,6896592076956988;129,97861689706085;-6040,98196329194;-149,023075058706;-646,7665774316037;7863,382609858722;0,17084207394013376;-0,1718379035720578;-8,959416722321132;0,742004639334142;132,28388768914934;-984,0958815060286;-148,13357221506044;-773,2726893583325;-120169,48399257749;-0,154430093084904;0,4493669453389206;27,22680731820971;0,7720254857915971;142,17684186610492;-10555,249669965058;-147,23348436800535;-726,7649659754726;-126051,43400103999;0,031056286817486463;0,37950361853653813;-0,18924908715023328;-0,0016107235359608882;-0,02830704942865017;-0,2524405406554499;0,05885058947222925;0,2405138044894736;-8,473713578740389;-0,007539878146946403;0,08569332121688003;0,6085081509858974;-0,0812915475501193;-4,742932714205137;-3258,982254831666;-0,06540743719201031;-0,5628010068824748;7,460860821785768;-0,3758116399519771;0,2713604825467084;0,6967944204427343;0,4112431591043058;0,3414388117087713;0,653381075355761;-0,10207692872246027;0,08881548005772685;0,5119492314357622;0,33786388543482565;0,1293418154104834;0,5795772698229485;0,0;0,0;0,0;0,0
0,08775879396984924;0,08102686760769562;-0,37164899662831247;-27,68189810966855;0,6199289983763756;0,8997746782950942;-6,880745763002413;-155,96756445598126;-637,1968957431968;9105,035573981262;-0,09936270454489698;-0,4998148727490268;8,237060853267796;0,6903368125770099;132,9957964175497;-2952,2210746710025;-149,3003618331188;-637,184806896635;8383,46084407323;0,1707040641239997;-0,17576975042903317;-14,937424163334896;0,742505942610254;128,84273708168382;-1660,8708462847176;-148,65497612204985;-697,9336566912026;-4707,00969399418;-0,15405204063260242;0,4471427489706851;29,41066351055327;0,7724194472942834;137,29476617074428;-29347,759329880606;-147,57264157095727;-657,4081557049915;-11092,81704346265;0,03146124349655178;0,37922954114233687;-0,24196075056352245;-0,0016408516313661287;-0,028536338028360905;-0,18688534137299337;0,059110782977762275;0,23110378875639054;-8,467419407275315;-0,007504077859130675;0,0859701755139169;0,03445260533197206;-0,0816799076110377;-1,8298873328169878;-750,4009476290635;-0,06567049152493522;-0,5538661459618786;7,50850018069079;-0,36542487561612924;0,2827572437421662;0,6867034332256361;0,39967418224199797;0,34744105101594985;0,639960284259329;-0,0915437370740229;0,09742856075418532;0,5013883917569295;0,3220081481643995;0,1343574582238724;0,5682033419397474;0,0;0,0;0,0;0,0
0,08894472361809044;0,08011382934702257;-0,409957834039901;-28,66228565186131;0,6210390567647477;0,892844647244092;-11,099636026921495;-147,92727805955275;-625,0994529219615;10635,388043266687;-0,09986254123481428;-0,4933907716213629;8,531054543319234;0,691939476480269;131,7199040339062;-842,1530788946186;-150,16725572230095;-627,8367726629206;8327,873018780956;0,1702751062785514;-0,20584321927503496;-17,664957712114052;0,7439742412355128;138,39779415086784;-17284,438016652362;-149,6511803645636;-636,6165271338444;31939,089999420074;-0,15267416443095697;0,4937701182834201;46,43136886259538;0,7734421781395099;60,674068440452466;-23399,903209571297;-148,45498304048368;-608,125998932304;28179,880539545866;0,031894871255033284;0,378915168931328;-0,2766030988343341;-0,0016733703203202456;-0,028728302171020483;-0,1427700200066883;0,059378759222571055;0,22090586959965458;-8,828928303471002;-0,00743351659057438;0,08566103107193668;-0,3849952142059187;-0,08277543282159686;0,09530850248683434;900,777756094677;-0,06644786714783185;-0,5446984185321078;7,163768413064137;-0,35508594208822264;0,2928664541055686;0,6742930661951165;0,3870701344644849;0,3533779109736114;0,6274520160358829;-0,07893818892935993;0,10557028154428542;0,49243463956654465;0,3067183792906923;0,13817543566763324;0,5556779737698463;0,0;0,0;0,0;0,0
0,09013065326633166;0,07897615737962506;-0,45224094570690615;-31,47238797959969;0,6223140203441303;0,8755953065524372;-19,25426510578773;-154,17252743248883;-608,9044883353978;11379,061220685491;-0,100452595446602;-0,4913384980985047;11,4543625488725;0,6937600801044644;126,89849070615873;-2654,410680269399;-151,21686606569543;-617,8263504407489;9265,837352282513;0,16974499380423264;-0,23707543617300456;-17,772530309091753;0,7457091052316258;115,04752606897938;-29977,52688731034;-150,5576229691024;-644,7916526853219;13039,810725976595;-0,1509170183425284;0,5782370734610814;63,693790000309384;0,7746732715945948;12,439560359029935;-4305,599211337384;-149,44422087612543;-620,8353107918222;9340,054852592253;0,032355737388651815;0,3785704856369594;-0,29807956226051147;-0,0017081961080176063;-0,0288846058541103;-0,10062990640304716;0,059651721351673445;0,20990087902500826;-9,067174321635287;-0,007354449384303203;0,08494530877966193;-0,6397129254961055;-0,08407627909676786;-1,0057667411158018;-69,69315660446091;-0,06736907235460501;-0,5362274946427437;6,304160955200157;-0,34477152785198845;0,30233251602293004;0,6607358075717784;0,37396427284563094;0,3592853767746146;0,6153886351752783;-0,06532222744419726;0,1134817500129839;0,48427175446014586;0,2917129500234226;0,1414037627667926;0,5425779255326155;0,0;0,0;0,0;0,0
0,09131658291457287;0,07813537797288815;-0,48062066919476354;-33,74609223579511;0,6229834156518256;0,8467973641911822;-25,54512781257757;-155,3367298412127;-595,1541487304899;8803,681060837509;-0,10076795183975765;-0,472188421515385;19,480749970741257;0,6947576008774221;126,2664277631252;-4048,1807186715087;-151,8554323010011;-606,5332886064502;10252,554229244888;0,16930961576235032;-0,2434328115229071;-17,45929681676344;0,7466826616426572;36,46231795979155;-18671,293523308785;-151,15008839738914;-637,6390319270356;16337,510268979082;-0,14969946843080106;0,6580803062528674;59,608022388876975;0,7754039591615576;76,75308662586586;1950,6281630455198;-150,00402905340513;-605,9485895512125;7413,01008284346;0,03281449786256468;0,37819982883755254;-0,30871969442916103;-0,001743175116339537;-0,02897996063044084;-0,04974712723871283;0,05990997828630373;0,1988391663994229;-8,809368947864577;-0,00728877898291306;0,08401285098010214;-0,7358365941779971;-0,08489393357045441;-1,0867840534123598;-155,92612162552854;-0,06792464616140535;-0,529441303150364;5,137324219555517;-0,3344492512407615;0,312006774053019;0,6475604637952228;0,36103458395750365;0,36520552135236295;0,6031707362147979;-0,05205641701689543;0,12147217984917752;0,47584144916334903;0,2766165252139707;0,14483103006509032;0,5296636335873806;0,0;0,0;0,0;0,0
0,09250251256281407;0,07703776322790906;-0,5237252743713479;-27,2052164366;0,6235763169449573;0,8092279973735832;-21,377893300572403;-154,49539186552485;-586,909161046128;4551,138825234942;-0,10097338782018853;-0,4380569380978672;18,838824093118287;0,6955069720643031;120,12501256610734;-1913,8983021813804;-152,47168732619377;-592,5960756542434;8223,825484937252;0,16858136562019008;-0,2631816260568224;-13,565391540665875;0,747510392123519;19,246819708676213;7073,34544651265;-151,75669959218413;-597,103710192412;7282,010027633933;-0,14844980847078446;0,7307298492500479;22,177409107326316;0,7759398557067237;93,03429531984352;-9461,01511828206;-150,58263355489078;-586,0498229968363;8620,34774847892;0,033230622035304656;0,3778254403017649;-0,3071594455380903;-0,0017750623758904446;-0,028998769225925113;-0,014338114150723617;0,060133500425422086;0,18874340845631607;-8,609267255807874;-0,007166053230667387;0,08309448665935538;-0,7335716673280419;-0,08580898245983849;-0,8068991559625497;72,57824040559657;-0,06852226427944856;-0,5243369052276781;4,391699151291369;-0,32411961771734005;0,3217931000274303;0,6345348062211801;0,3481214806101596;0,37111508194046794;0,5909274483497168;-0,03885215501062817;0,12948021256985467;0,4673299310534375;0,26146262636339707;0,14832371109137182;0,5168481617848282;0,0;0,0;0,0;0,0
0,09368844221105527;0,07592838390092094;-0,5702469707034346;-17,93613908636415;0,6241872224145067;0,7804798253513165;-12,172922741628756;-155,3341385768297;-584,7879669405065;1385,4955850644324;-0,10115771985396678;-0,4097935091367546;11,43947085462522;0,696180417388564;112,78734846489849;-916,6724869230552;-153,09795836394474;-581,3323688708631;4771,0306168719635;0,16780700040294924;-0,2954947941795743;-10,664852618480388;0,7483036675977226;86,49658450537564;24084,668950397212;-152,3178160229912;-571,9738013484005;-908,9723138355839;-0,14731866860630355;0,7526574715904183;-1,5133972527520285;0,7763461907564305;17,35797701949921;-24838,34513995812;-151,18705041554645;-581,8939679781028;3205,969324248676;0,03361786769335405;0,37746402440288646;-0,28602573210506366;-0,001804780662617981;-0,02897468577774805;-0,0112759127708476;0,06033041861780571;0,17922562042415138;-8,814436337684679;-0,007024488954722124;0,08227896835369768;-0,7014635481848047;-0,08673273358287605;-0,8393665734539697;32,442924458530214;-0,0691262419163017;-0,5199359162463613;4,488293500670268;-0,3137950726200863;0,33149280556603394;0,6213844720765322;0,3351825349821499;0,37702972610493607;0,5787137516211088;-0,025578456096083373;0,13747037613486526;0,4588911488803639;0,24635135562584135;0,15175832202217987;0,503957181293407;0,0;0,0;0,0;0,0
0,09487437185929648;0,07597560199210643;-0,564151850922511;-26,73025501724457;0,6242263760067197;0,7867517644895125;-18,469486412968877;-156,9996698631248;-586,5991945659447;2329,425650670192;-0,10121659243434843;-0,41678639937784706;19,115398107501466;0,6962333989567615;123,0602418223536;-12707,801240457473;-153,21527463488937;-583,1799935397906;6654,4449212217005;0,1679027192802082;-0,28956012974993905;-21,788272661422013;0,7483594840381389;125,45955331086905;4933,432400313545;-152,3115573968874;-642,4830359357229;69718,63556721412;-0,14738094429168877;0,6612956445936383;72,34559754308704;0,7762826543978687;-13,444217319235145;-17013,336336343455;-151,20824601036185;-586,2309844347859;4555,103538301362;0,03404842224183467;0,37712673723853074;-0,23493535144698105;-0,0018378019501314622;-0,028991998433199797;-0,03942083857045578;0,06053800910892398;0,1683720601467507;-9,295284530837455;-0,007020793298656407;0,08147717410246913;-0,6929987492757234;-0,08671233970557352;-0,8666774876400828;-3,592310107081038;-0,06911075335641316;-0,5144326904043425;5,281244885377627;-0,30348834951292936;0,34104534247642554;0,6081813118876037;0,32242273513106107;0,3830024052033221;0,566385938105176;-0,012547900505990323;0,1455010801504375;0,4503970701718669;0,23133683107140163;0,15521235686805182;0,49094197336937234;0,0;0,0;0,0;0,0
0,0960603015075377;0,07575258530765519;-0,5777449602406117;-37,19253235888365;0,6242848972001874;0,7763150958227438;-37,47449412425847;-155,5415558420404;-584,7011148043619;8627,1707317506;-0,10118613336093922;-0,4055900426599771;38,77071576700039;0,6962842845584578;111,56251252742976;-28842,070105974446;-153,19744368726302;-579,6661751616165;11855,35865794172;0,16768276375717503;-0,3011438709864854;-40,491288365680056;0,7484280807181117;100,59840903298408;-26710,586550981865;-152,40472614064822;-568,5875119619875;132585,49278841686;-0,14714453216918963;0,7541262211807089;26,24479687304243;0,7764055400065019;1,5448657725910129;518,4889723345498;-151,28385372113448;-581,9227300498633;14652,878658172383;0,034502220966857414;0,3768712776355322;-0,17537147315011783;-0,0018726306354359158;-0,029069182933143638;-0,08466842556409725;0,06074601399330894;0,15656120597209114;-9,711237542470421;-0,007001380496796482;0,08063860446414171;-0,6398662148346805;-0,08687930119607115;-0,8279949382736908;15,393860583674261;-0,06922215772030724;-0,5073365281708057;5,911220949427923;-0,29314807989405417;0,3508950598256741;0,5951046487837637;0,3093312863554586;0,3888638490324328;0,5542657153934186;0,0009235261877567723;0,15345971054076346;0,4419913688380958;0,2161319907492581;0,15864311481397284;0,4781761841180469;0,0;0,0;0,0;0,0
0,09724623115577889;0,07353288517286741;-0,6830026140968055;-33,7557809955851;0,625134023344236;0,6928171368449748;-53,90389923237599;-151,6953240927083;-570,1005946378015;15836,3909997712;-0,1011539627179113;-0,3181013078976529;54,31768723413082;0,6971255509434383;41,28334600286821;-33376,52600652209;-153,87259545529784;-551,3775279007816;14775,21202485278;0,1657475083157814;-0,3963282697390987;-52,331373384797494;0,7494807588162039;34,65175613427608;-32715,1852175333;-153,40424427928332;-178,18939264940553;75026,0787114555;-0,14485585712960525;1,1112463999998272;-193,5216708778181;0,7774590667000814;3,7051308037702473;2474,9316641913433;-152,23169729770433;-553,8917903148769;25305,91730664443;0,03492971445758987;0,3767354306165899;-0,14074498445664924;-0,0019055488612548942;-0,029193958010614373;-0,13164581533540984;0,06092857491008147;0,1450262009464207;-9,789106201573652;-0,006770148870670689;0,07982689939163544;-0,44669435133184554;-0,08862618661228637;-0,8062400673315758;17,226248127087327;-0,0703792453962747;-0,4994005347809263;5,44142324628949;-0,2827673105789686;0,36108435797252925;0,582146074637674;0,2958227426883375;0,39459019926898065;0,5424109930894174;0,01496084160435596;0,16132380069998792;0,4337169829430588;0,20070476395510561;0,16202709598985626;0,4656952781263482;0,0;0,0;0,0;0,0
0,09843216080402009;0,07139932831851996;-0,7150570510494362;-70,92457421671882;0,6259305329561439;0,6071552024507526;-54,448799904640154;-166,42564928370183;-539,5887397615205;4201,804807939926;-0,10110463919538698;-0,23221570279173923;53,41593432848511;0,6979431663630914;-9,391898475188373;-22533,750295999333;-155,86547990804632;-528,8008355016525;14279,985725314627;0,16387129025660463;-0,47697496437262427;-52,32383153892389;0,7505018741743587;-7,639553011399277;-19698,662217705663;-154,37646684538478;-110,10640734253441;3019,6481248258688;-0,14264937991326324;0,4609626200283633;430,5123002806878;0,778623838452962;-0,2115232548118026;-822,3199429987754;-153,14303754601585;-509,63964029910017;17679,69419361119;0,03535585554564403;0,37660385605985;-0,14608316545753675;-0,0019384978533268217;-0,02937498720853864;-0,18228463391006638;0,06109671307194504;0,133555025332014;-9,81414303912566;-0,006564509436438105;0,07940130448494105;-0,14822394740275524;-0,09034043419928733;-0,7958098129515752;10,110057874085891;-0,0715220907816633;-0,4931109157916747;3,924630013314882;-0,27260452286770415;0,36940517374179266;0,5685089192109554;0,28456426637965243;0,4010527672624075;0,5291287355290789;0,025957513714052072;0,1696937116049254;0,42475571875185286;0,18649304946519624;0,16564470870742884;0,45164673048400894;0,0;0,0;0,0;0,0
0,0996180904522613;0,07046178012541982;-0,7140806461140792;-82,97917953161169;0,626199039860153;0,5627013605359286;-40,37677807228352;-173,9001522730985;-525,8481664145119;-4655,444457967129;-0,100998374782329;-0,19289056976344596;39,703245312316476;0,6982530123122519;-3,745275016820917;-4192,459094971693;-156,81780366556853;-523,8043640328347;12211,986395842465;0,16298491017211064;-0,5024043063110573;-46,09816471778522;0,7508731144684129;-2,9631008928085283;-3466,3109454854675;-154,77078500936585;-451,03939707165495;-5001,562098070525;-0,14167688342214088;0,10678596257662787;739,075884955267;0,7793423148977235;0,2459130438448883;-378,293794361172;-153,50221848000376;-482,86127674805005;8293,39051524353;0,03580339593549842;0,37640108550044793;-0,18196818062128625;-0,0019733038266205438;-0,02962211043388866;-0,2341013490794492;0,061260023713965106;0,12183385360190249;-9,815676614830018;-0,006507971724243775;0,07951166319871585;0,1553354621882369;-0,09109733066065942;-0,7841663175151902;7,632854904167106;-0,07204764896713203;-0,48989404684228727;1,9615981925344377;-0,26272979565253984;0,37527215578772594;0,5539856818772833;0,2762668120363163;0,40848156476271114;0,5139673792260951;0,03294951883847548;0,17872903947260468;0,41488382070583035;0,17387835397150353;0,16957360591412085;0,4355409157108662;0,0;0,0;0,0;0,0
0,10080402010050252;0,06938366160028547;-0,9960119781361081;120,6704616876998;0,6264483069335427;0,5266467981856012;-31,60530772081126;-91,54118105533779;-587,7883374656019;61694,94025553432;-0,10079767348429124;-0,15859918659911354;36,20478864970284;0,6985029022097136;3,9722017469569932;2761,301440888655;-151,9670796712041;-509,06548877430964;12792,392035696785;0,1619334396823817;-0,5565093884022249;-49,700082817944725;0,7511241318658637;3,408034709245937;2289,34007936356;-155,0892180570572;-350,93244599890016;20202,220323945825;-0,1406017421512683;4,065000078823908;-2676,2120879091362;0,7798925075827079;0,8756936271426192;209,49280746171414;-153,8438251779707;-519,4985125864363;57117,06448559794;0,03626583622098068;0,37615478075873665;-0,2117028519616471;-0,002009622547510689;-0,02993763181058803;-0,2736226294815559;0,06141400335853574;0,10993742215627379;-9,339861584864192;-0,006439978948975721;0,07992039582554877;0,32562920109066257;-0,09181025066905484;-0,7759697788945787;6,287736617586013;-0,07256605656595604;-0,48908483113482015;0,5588262899719095;-0,25288049664884027;0,38094738673557366;0,5393938683716462;0,26819739441822243;0,4159808863656405;0,49866197416309804;0,03962975407589318;0,18781319292794077;0,4049335947677517;0,1613872717465495;0,1735283612822556;0,41927813502849154;0,0;0,0;0,0;0,0
0,10198994974874372;0,06801412550408487;-0,8872518924806811;-25,364189129906492;0,6268020262973855;0,4884172819341562;-31,761363118452305;-15,959723491857332;-526,6061437869049;133203,54420339395;-0,10052347364581066;-0,11096595743106802;41,690749573901876;0,6988026650192551;0,6400684369236479;-45,72038721134807;-156,4027039826292;-486,28425047144805;14881,528472787732;0,1605426928612114;-0,6388940438131027;-59,37884445889669;0,7514845162106939;0,6663016125818823;-25,489409651450785;-155,54165982614916;-46,71676167906864;15137,012014131364;-0,13922711123814732;1,0997468428242412;-85,16537200709445;0,7803694414936624;0,5468744770515682;-30,314836160762987;-154,27064156737453;-463,1373137283626;111319,38796479332;0,03670081248280745;0,37588731666445896;-0,2192854027493102;-0,0020441298505192466;-0,030293642811465748;-0,29406422805033483;0,06154602375169217;0,09892697477966741;-8,513237453155913;-0,006322556625458357;0,08039981557592824;0,39307366498059704;-0,09269716335951077;-0,7707887273264983;4,980631206273287;-0,07319884181866174;-0,4893990316880806;-0,06962168169417075;-0,24297996264437668;0,38701069992521775;0,5249415177169234;0,25966218598501734;0,42333553410915353;0,4836503309545606;0,04694366075530958;0,1967957995323341;0,395138888271642;0,14864491204414138;0,17743095234329218;0,4033352531199452;0,0;0,0;0,0;0,0
0,10317587939698492;0,06685658519121482;-0,04821849032096459;-755,3305016891487;0,6271303681177878;0,45222357306923394;-33,47043095311974;-90,11305762684819;-159,4946489074767;89455,08310731854;-0,10021779388616503;-0,05348630993909073;41,854221619059736;0,6990494707734958;-0,1789892456419168;-676,8611626946577;-176,31757193296386;-471,3544531558711;14857,616239175482;0,1592483334071717;-0,7054964725950733;-59,54681165681252;0,7519217953711477;0,022436916398801673;-555,6470474374497;-156,03511785139904;-230,06176885387333;-59626,286955981705;-0,13800612276360075;-13,5469376577554;17844,27247100281;0,7807409767071771;0,4509446815559051;-78,99680950831899;-154,62109876999244;-169,23410563531118;76710,9624077794;0,037067065704531305;0,3756173974162951;-0,20413310230310394;-0,0020735112425274687;-0,030650643576478905;-0,29597627291188816;0,06164580702940388;0,08985774175753701;-7,806921332617017;-0,006195752110623214;0,08082719075008452;0,4751242175983757;-0,09353131094815485;-0,7651228291822028;4,620506857578691;-0,07376896700414103;-0,4895961171150445;-0,21050707752037326;-0,23308141786998063;0,39298027955748027;0,5104537377555171;0,2512464072676006;0,43074092475740516;0,46856022596130026;0,0541033130774914;0,20581122203015137;0,3853289661817569;0,13596626797961955;0,181340819396261;0,3873041643008077;0,0;0,0;0,0;0,0
0,10436180904522613;0,06556826385678087;-2,0105890554085932;938,9132498811697;0,6274489700170783;0,4108153680991804;-29,973419965193624;-175,719262353192;-31,40884063909463;-19543,401248490896;-0,09986038543998381;-0,002538501862430465;35,12007565961498;0,69932126501984;0,6471110313340679;107,37854602880319;-131,28187849336425;-456,0363456018655;13196,192474615336;0,15805202574976426;-0,7742284201771801;-39,53672696063488;0,7523286853070935;0,7062136434066443;78,222594627146;-156,20508120987586;-477,8050597974248;-83583,39121922983;-0,13663809424885182;20,625933151705862;24833,332454259376;0,7810884366954809;0,5045280959457332;-4,249218812224998;-154,96730686736254;-60,33306285692337;-11332,156532490493;0,03741404583246897;0,37538243109673397;-0,17032893081898687;-0,002101705108820353;-0,03099798318463994;-0,29047730069214533;0,06173071300340004;0,08130849091201853;-7,512882189169384;-0,006048357127123321;0,08140624985961015;0,6035821286566277;-0,09441270385689782;-0,7593833362901455;4,747011162674479;-0,07437033240785393;-0,48979092215501563;-0,08228522241734668;-0,22322498693573822;0,3989132324497022;0,4959564055807477;0,24285217955269087;0,4381043433782871;0,4534677315626158;0,06120432973508655;0,21480909200936182;0,37542583443270716;0,12330179482644818;0,18527484591170437;0,37128224267983284;0,0;0,0;0,0;0,0
